trial_index, block, condition, full_condition_code, RT, response_type, response_key, error_outlier
1, 1, T_Sinc, T_Sinc_URRR, 458.5, hit, 2, 0
2, 1, T_Scon, T_Scon_DRRR, 425.9, hit, 2, 0
3, 1, T_Scon, T_Scon_UGLG, 385.4, hit, 1, 0
4, 1, T_Scon, T_Scon_UGLG, 356.7, hit, 1, 0
5, 1, T_Sinc, T_Sinc_DGLG, 336.2, hit, 1, 0
6, 1, T_Scon, T_Scon_UGLG, 371.6, hit, 1, 0
7, 1, T_Sinc, T_Sinc_URRR, 339.1, hit, 2, 0
8, 1, T_Sinc, T_Sinc_DGLG, 446.5, hit, 1, 0
9, 1, T_Sinc, T_Sinc_DGLG, 401.9, hit, 1, 0
10, 1, T_Scon, T_Scon_DRRR, 381.4, hit, 2, 0
11, 1, T_Scon, T_Scon_DRRR, 336.9, hit, 2, 0
12, 1, T_Scon, T_Scon_DRRR, 336.2, hit, 2, 0
13, 1, T_Scon, T_Scon_DRRR, 343.7, hit, 2, 0
14, 1, T_Scon, T_Scon_UGLG, 375.1, hit, 1, 0
15, 1, T_Scon, T_Scon_UGLG, 370.6, hit, 1, 0
16, 1, T_Scon, T_Scon_UGLG, 386.0, hit, 1, 0
17, 1, T_Scon, T_Scon_UGLG, 385.5, hit, 1, 0
18, 1, T_Scon, T_Scon_DRRR, 492.9, hit, 2, 0
19, 1, T_Scon, T_Scon_UGLG, 360.3, hit, 1, 0
20, 1, T_Scon, T_Scon_UGLG, 391.8, hit, 1, 0
21, 1, T_Scon, T_Scon_UGLG, 459.2, hit, 1, 0
22, 1, T_Sinc, T_Sinc_DGLG, 358.7, hit, 1, 0
23, 1, T_Scon, T_Scon_UGLG, 386.1, hit, 1, 0
24, 1, T_Scon, T_Scon_DRRR, 281.6, hit, 2, 0
25, 1, T_Scon, T_Scon_DRRR, 361.0, hit, 2, 0
26, 1, T_Sinc, T_Sinc_URRR, 364.5, hit, 2, 0
27, 1, T_Scon, T_Scon_UGLG, 551.9, hit, 1, 0
28, 1, T_Scon, T_Scon_UGLG, 427.3, hit, 1, 0
29, 1, T_Scon, T_Scon_DRRR, 442.8, hit, 2, 0
30, 1, T_Scon, T_Scon_UGLG, 378.2, hit, 1, 0
31, 1, T_Sinc, T_Sinc_DGLG, 357.6, hit, 1, 0
32, 1, T_Scon, T_Scon_DRRR, 393.1, hit, 2, 0
33, 1, T_Scon, T_Scon_DRRR, 348.5, hit, 2, 0
34, 1, T_Scon, T_Scon_UGLG, 424.0, hit, 1, 0
35, 1, T_Scon, T_Scon_UGLG, 343.4, hit, 1, 0
36, 1, T_Scon, T_Scon_DRRR, 338.9, hit, 2, 0
37, 1, T_Scon, T_Scon_DRRR, 634.1, hit, 2, 0
38, 1, T_Scon, T_Scon_UGLG, 429.5, hit, 1, 0
39, 1, T_Sinc, T_Sinc_URRR, 425.0, hit, 2, 0
40, 1, T_Scon, T_Scon_DRRR, 476.4, hit, 2, 0
41, 1, T_Scon, T_Scon_DRRR, 467.9, hit, 2, 0
42, 1, T_Scon, T_Scon_DRRR, 367.2, hit, 2, 0
43, 1, T_Scon, T_Scon_UGLG, 386.7, hit, 1, 0
44, 1, T_Scon, T_Scon_DRRR, 386.1, hit, 2, 0
45, 1, T_Scon, T_Scon_UGLG, 409.6, hit, 1, 0
46, 1, T_Scon, T_Scon_DRRR, 357.1, hit, 2, 0
47, 1, T_Scon, T_Scon_UGLG, 364.5, hit, 1, 0
48, 1, T_Scon, T_Scon_DRRR, 351.9, hit, 2, 0
49, 1, T_Scon, T_Scon_UGLG, 307.3, hit, 1, 0
50, 1, T_Scon, T_Scon_DRRR, 306.7, hit, 2, 0
51, 1, T_Scon, T_Scon_UGLG, 410.2, hit, 1, 0
52, 1, T_Scon, T_Scon_DRRR, 365.6, hit, 2, 0
53, 1, T_Scon, T_Scon_DRRR, 481.1, hit, 2, 0
54, 1, T_Scon, T_Scon_DRRR, 412.6, hit, 2, 0
55, 1, T_Sinc, T_Sinc_DGLG, 416.0, incorrect, 2, 1
56, 1, T_Scon, T_Scon_UGLG, 363.5, hit, 1, 0
57, 1, T_Scon, T_Scon_UGLG, 363.0, hit, 1, 0
58, 1, T_Sinc, T_Sinc_URRR, 558.4, hit, 2, 0
59, 1, T_Scon, T_Scon_UGLG, 341.9, hit, 1, 0
60, 1, T_Scon, T_Scon_UGLG, 369.2, hit, 1, 0
61, 1, T_Scon, T_Scon_DRRR, 308.7, hit, 2, 0
62, 1, T_Scon, T_Scon_DRRR, 384.1, hit, 2, 0
63, 1, T_Scon, T_Scon_DRRR, 435.6, hit, 2, 0
64, 1, T_Scon, T_Scon_UGLG, 391.0, hit, 1, 0
65, 1, T_Scon, T_Scon_UGLG, 338.4, hit, 1, 0
66, 1, T_Scon, T_Scon_DRRR, 397.9, hit, 2, 0
67, 1, T_Scon, T_Scon_DRRR, 421.3, hit, 2, 0
68, 1, T_Scon, T_Scon_DRRR, 352.8, hit, 2, 0
69, 1, T_Scon, T_Scon_DRRR, 408.2, hit, 2, 0
70, 1, T_Scon, T_Scon_UGLG, 355.7, hit, 1, 0
71, 1, T_Scon, T_Scon_UGLG, 331.0, hit, 1, 0
72, 1, T_Scon, T_Scon_DRRR, 310.5, hit, 2, 0
73, 1, T_Scon, T_Scon_DRRR, 853.7, hit, 2, 2
74, 1, T_Scon, T_Scon_UGLG, 281.1, hit, 1, 0
75, 1, T_Scon, T_Scon_DRRR, 312.6, hit, 2, 0
76, 1, T_Scon, T_Scon_DRRR, 340.0, hit, 2, 0
77, 1, T_Sinc, T_Sinc_URRR, 359.5, hit, 2, 0
78, 1, T_Sinc, T_Sinc_DGLG, 330.9, hit, 1, 0
79, 1, T_Scon, T_Scon_UGLG, 326.3, hit, 1, 0
80, 1, T_Scon, T_Scon_UGLG, 353.7, hit, 1, 0
81, 1, T_Scon, T_Scon_UGLG, 409.2, hit, 1, 0
82, 1, T_Scon, T_Scon_DRRR, 272.7, hit, 2, 0
83, 1, T_Sinc, T_Sinc_URRR, 336.1, hit, 2, 0
84, 1, T_Scon, T_Scon_UGLG, 323.6, hit, 1, 0
85, 1, T_Scon, T_Scon_DRRR, 303.0, hit, 2, 0
86, 1, T_Sinc, T_Sinc_DGLG, 358.5, incorrect, 2, 1
87, 1, T_Scon, T_Scon_UGLG, 510.0, hit, 1, 0
88, 1, T_Scon, T_Scon_UGLG, 401.3, hit, 1, 0
89, 1, T_Sinc, T_Sinc_DGLG, 452.8, hit, 1, 0
90, 1, T_Sinc, T_Sinc_DGLG, 400.2, hit, 1, 0
91, 1, T_Sinc, T_Sinc_URRR, 327.6, hit, 2, 0
92, 1, T_Sinc, T_Sinc_URRR, 323.1, hit, 2, 0
93, 1, T_Scon, T_Scon_DRRR, 358.5, hit, 2, 0
94, 1, T_Scon, T_Scon_UGLG, 401.9, hit, 1, 0
95, 1, T_Scon, T_Scon_UGLG, 301.4, hit, 1, 0
96, 1, T_Sinc, T_Sinc_DGLG, 480.8, hit, 1, 0
97, 1, T_Scon, T_Scon_UGLG, 320.3, hit, 1, 0
98, 1, T_Sinc, T_Sinc_DGLG, 299.7, hit, 1, 0
99, 1, T_Scon, T_Scon_UGLG, 331.2, hit, 1, 0
100, 1, T_Scon, T_Scon_UGLG, 306.6, hit, 1, 0
101, 1, T_Scon, T_Scon_DRRR, 414.1, hit, 2, 0
102, 1, T_Scon, T_Scon_DRRR, 249.5, hit, 2, 0
103, 1, T_Scon, T_Scon_DRRR, 244.9, hit, 2, 0
104, 1, T_Sinc, T_Sinc_URRR, 368.3, incorrect, 1, 1
105, 1, T_Sinc, T_Sinc_URRR, 547.8, hit, 2, 0
106, 1, T_Sinc, T_Sinc_DGLG, 335.2, hit, 1, 0
107, 1, T_Sinc, T_Sinc_URRR, 530.7, hit, 2, 0
108, 1, T_Scon, T_Scon_DRRR, 406.1, hit, 2, 0
109, 1, T_Sinc, T_Sinc_URRR, 685.4, hit, 2, 0
110, 1, T_Scon, T_Scon_DRRR, 336.8, hit, 2, 0
111, 1, T_Scon, T_Scon_UGLG, 412.1, hit, 1, 0
112, 1, T_Scon, T_Scon_DRRR, 399.6, hit, 2, 0
113, 1, T_Scon, T_Scon_DRRR, 299.0, hit, 2, 0
114, 1, T_Scon, T_Scon_DRRR, 338.5, hit, 2, 0
115, 1, T_Scon, T_Scon_DRRR, 314.0, hit, 2, 0
116, 1, T_Scon, T_Scon_UGLG, 321.4, hit, 1, 0
117, 1, T_Scon, T_Scon_DRRR, 404.8, hit, 2, 0
118, 1, T_Scon, T_Scon_DRRR, 308.2, hit, 2, 0
119, 1, T_Scon, T_Scon_UGLG, 387.7, hit, 1, 0
120, 1, T_Scon, T_Scon_UGLG, 291.1, hit, 1, 0
121, 1, T_Sinc, T_Sinc_URRR, 502.6, hit, 2, 0
122, 1, T_Scon, T_Scon_DRRR, 330.0, hit, 2, 0
123, 1, T_Scon, T_Scon_UGLG, 469.4, hit, 1, 0
124, 1, T_Scon, T_Scon_UGLG, 328.8, hit, 1, 0
125, 1, T_Scon, T_Scon_DRRR, 320.3, hit, 2, 0
126, 1, T_Sinc, T_Sinc_URRR, 483.8, hit, 2, 0
127, 1, T_Sinc, T_Sinc_DGLG, 279.2, hit, 1, 0
128, 1, T_Scon, T_Scon_DRRR, 322.7, hit, 2, 0
129, 1, T_Sinc, T_Sinc_DGLG, 342.0, hit, 1, 0
130, 1, T_Sinc, T_Sinc_DGLG, 313.5, hit, 1, 0
131, 1, T_Scon, T_Scon_UGLG, 352.9, hit, 1, 0
132, 1, T_Scon, T_Scon_DRRR, 452.4, hit, 2, 0
133, 1, T_Scon, T_Scon_UGLG, 391.8, hit, 1, 0
134, 1, T_Scon, T_Scon_DRRR, 267.3, hit, 2, 0
135, 1, T_Scon, T_Scon_UGLG, 246.7, hit, 1, 0
136, 1, T_Scon, T_Scon_UGLG, 322.1, hit, 1, 0
137, 1, T_Scon, T_Scon_UGLG, 425.5, hit, 1, 0
138, 1, T_Sinc, T_Sinc_URRR, 501.0, hit, 2, 0
139, 1, T_Sinc, T_Sinc_URRR, 288.4, hit, 2, 0
140, 1, T_Sinc, T_Sinc_DGLG, 375.9, hit, 1, 0
141, 1, T_Scon, T_Scon_DRRR, 359.3, hit, 2, 0
142, 1, T_Scon, T_Scon_UGLG, 370.8, hit, 1, 0
143, 1, T_Sinc, T_Sinc_DGLG, 362.2, incorrect, 2, 1
144, 1, T_Sinc, T_Sinc_URRR, 329.6, hit, 2, 0
145, 2, T_Scon, T_Scon_UGLG, 429.3, hit, 1, 0
146, 2, T_Scon, T_Scon_UGLG, 272.7, hit, 1, 0
147, 2, T_Scon, T_Scon_UGLG, 340.1, hit, 1, 0
148, 2, T_Scon, T_Scon_DRRR, 315.5, hit, 2, 0
149, 2, T_Scon, T_Scon_DRRR, 283.0, hit, 2, 0
150, 2, T_Scon, T_Scon_UGLG, 302.4, hit, 1, 0
151, 2, T_Scon, T_Scon_DRRR, 277.9, hit, 2, 0
152, 2, T_Scon, T_Scon_UGLG, 777.3, hit, 1, 2
153, 2, T_Scon, T_Scon_UGLG, 356.7, hit, 1, 0
154, 2, T_Scon, T_Scon_UGLG, 344.1, hit, 1, 0
155, 2, T_Scon, T_Scon_UGLG, 331.6, hit, 1, 0
156, 2, T_Sinc, T_Sinc_URRR, 343.1, hit, 2, 0
157, 2, T_Scon, T_Scon_DRRR, 250.5, hit, 2, 0
158, 2, T_Sinc, T_Sinc_URRR, 301.9, hit, 2, 0
159, 2, T_Scon, T_Scon_UGLG, 385.4, hit, 1, 0
160, 2, T_Scon, T_Scon_DRRR, 356.8, hit, 2, 0
161, 2, T_Scon, T_Scon_UGLG, 400.2, hit, 1, 0
162, 2, T_Scon, T_Scon_UGLG, 315.7, hit, 1, 0
163, 2, T_Scon, T_Scon_DRRR, 263.1, hit, 2, 0
164, 2, T_Scon, T_Scon_DRRR, 330.6, hit, 2, 0
165, 2, T_Scon, T_Scon_UGLG, 262.0, hit, 1, 0
166, 2, T_Scon, T_Scon_DRRR, 225.4, hit, 2, 0
167, 2, T_Scon, T_Scon_DRRR, 340.8, hit, 2, 0
168, 2, T_Scon, T_Scon_DRRR, 324.3, hit, 2, 0
169, 2, T_Scon, T_Scon_UGLG, 343.7, hit, 1, 0
170, 2, T_Sinc, T_Sinc_DGLG, 291.2, incorrect, 2, 1
171, 2, T_Scon, T_Scon_UGLG, 414.6, hit, 1, 0
172, 2, T_Scon, T_Scon_DRRR, 282.1, hit, 2, 0
173, 2, T_Scon, T_Scon_UGLG, 313.5, hit, 1, 0
174, 2, T_Scon, T_Scon_UGLG, 364.9, hit, 1, 0
175, 2, T_Sinc, T_Sinc_URRR, 300.4, incorrect, 1, 1
176, 2, T_Scon, T_Scon_UGLG, 287.8, hit, 1, 0
177, 2, T_Scon, T_Scon_DRRR, 299.3, hit, 2, 0
178, 2, T_Scon, T_Scon_DRRR, 350.7, hit, 2, 0
179, 2, T_Scon, T_Scon_DRRR, 330.2, hit, 2, 0
180, 2, T_Scon, T_Scon_DRRR, 373.6, hit, 2, 0
181, 2, T_Scon, T_Scon_DRRR, 420.8, hit, 2, 0
182, 2, T_Scon, T_Scon_UGLG, 548.2, hit, 1, 0
183, 2, T_Sinc, T_Sinc_DGLG, 463.6, hit, 1, 0
184, 2, T_Scon, T_Scon_UGLG, 427.1, hit, 1, 0
185, 2, T_Scon, T_Scon_UGLG, 374.5, hit, 1, 0
186, 2, T_Scon, T_Scon_DRRR, 330.0, hit, 2, 0
187, 2, T_Scon, T_Scon_UGLG, 361.4, hit, 1, 0
188, 2, T_Scon, T_Scon_UGLG, 336.9, hit, 1, 0
189, 2, T_Sinc, T_Sinc_DGLG, 516.3, hit, 1, 0
190, 2, T_Scon, T_Scon_UGLG, 335.8, hit, 1, 0
191, 2, T_Scon, T_Scon_DRRR, 323.1, hit, 2, 0
192, 2, T_Sinc, T_Sinc_DGLG, 566.6, hit, 1, 0
193, 2, T_Scon, T_Scon_DRRR, 398.0, hit, 2, 0
194, 2, T_Scon, T_Scon_DRRR, 429.5, hit, 2, 0
195, 2, T_Sinc, T_Sinc_DGLG, 384.9, hit, 1, 0
196, 2, T_Sinc, T_Sinc_DGLG, 320.4, hit, 1, 0
197, 2, T_Scon, T_Scon_DRRR, 383.9, hit, 2, 0
198, 2, T_Sinc, T_Sinc_DGLG, 371.2, hit, 1, 0
199, 2, T_Sinc, T_Sinc_DGLG, 370.6, hit, 1, 0
200, 2, T_Scon, T_Scon_UGLG, 382.1, hit, 1, 0
201, 2, T_Scon, T_Scon_UGLG, 349.6, hit, 1, 0
202, 2, T_Scon, T_Scon_DRRR, 389.0, hit, 2, 0
203, 2, T_Scon, T_Scon_UGLG, 400.5, hit, 1, 0
204, 2, T_Scon, T_Scon_DRRR, 491.9, hit, 2, 0
205, 2, T_Scon, T_Scon_DRRR, 287.4, hit, 2, 0
206, 2, T_Sinc, T_Sinc_DGLG, 594.7, hit, 1, 0
207, 2, T_Scon, T_Scon_UGLG, 382.2, hit, 1, 0
208, 2, T_Scon, T_Scon_DRRR, 377.6, hit, 2, 0
209, 2, T_Sinc, T_Sinc_DGLG, 565.1, hit, 1, 0
210, 2, T_Sinc, T_Sinc_DGLG, 372.5, hit, 1, 0
211, 2, T_Sinc, T_Sinc_URRR, 352.0, hit, 2, 0
212, 2, T_Scon, T_Scon_DRRR, 299.4, hit, 2, 0
213, 2, T_Scon, T_Scon_DRRR, 430.9, hit, 2, 0
214, 2, T_Scon, T_Scon_DRRR, 410.3, hit, 2, 0
215, 2, T_Scon, T_Scon_UGLG, 269.8, hit, 1, 0
216, 2, T_Scon, T_Scon_DRRR, 409.3, hit, 2, 0
217, 2, T_Scon, T_Scon_DRRR, 656.4, hit, 2, 0
218, 2, T_Scon, T_Scon_DRRR, 379.8, hit, 2, 0
219, 2, T_Scon, T_Scon_DRRR, 339.2, hit, 2, 0
220, 2, T_Sinc, T_Sinc_URRR, 358.7, hit, 2, 0
221, 2, T_Scon, T_Scon_UGLG, 294.1, hit, 1, 0
222, 2, T_Scon, T_Scon_DRRR, 349.6, hit, 2, 0
223, 2, T_Scon, T_Scon_DRRR, 361.1, hit, 2, 0
224, 2, T_Scon, T_Scon_DRRR, 332.4, hit, 2, 0
225, 2, T_Scon, T_Scon_UGLG, 327.9, hit, 1, 0
226, 2, T_Scon, T_Scon_UGLG, 323.3, hit, 1, 0
227, 2, T_Sinc, T_Sinc_DGLG, 442.8, hit, 1, 0
228, 2, T_Scon, T_Scon_UGLG, 334.2, hit, 1, 0
229, 2, T_Scon, T_Scon_UGLG, 301.7, hit, 1, 0
230, 2, T_Scon, T_Scon_DRRR, 497.1, hit, 2, 0
231, 2, T_Sinc, T_Sinc_URRR, 508.5, hit, 2, 0
232, 2, T_Sinc, T_Sinc_URRR, 308.0, incorrect, 1, 1
233, 2, T_Scon, T_Scon_UGLG, 303.4, hit, 1, 0
234, 2, T_Scon, T_Scon_UGLG, 306.8, hit, 1, 0
235, 2, T_Sinc, T_Sinc_DGLG, 506.3, hit, 1, 0
236, 2, T_Scon, T_Scon_DRRR, 317.8, hit, 2, 0
237, 2, T_Scon, T_Scon_DRRR, 273.2, hit, 2, 0
238, 2, T_Sinc, T_Sinc_URRR, 300.6, hit, 2, 0
239, 2, T_Scon, T_Scon_DRRR, 320.0, hit, 2, 0
240, 2, T_Scon, T_Scon_DRRR, 331.5, hit, 2, 0
241, 2, T_Scon, T_Scon_UGLG, 310.9, hit, 1, 0
242, 2, T_Scon, T_Scon_DRRR, 362.4, hit, 2, 0
243, 2, T_Sinc, T_Sinc_URRR, 377.8, hit, 2, 0
244, 2, T_Scon, T_Scon_UGLG, 373.2, hit, 1, 0
245, 2, T_Sinc, T_Sinc_URRR, 552.6, hit, 2, 0
246, 2, T_Sinc, T_Sinc_URRR, 324.1, hit, 2, 0
247, 2, T_Scon, T_Scon_UGLG, 307.5, hit, 1, 0
248, 2, T_Scon, T_Scon_DRRR, 355.0, hit, 2, 0
249, 2, T_Sinc, T_Sinc_DGLG, 318.5, incorrect, 2, 1
250, 2, T_Sinc, T_Sinc_URRR, 565.9, hit, 2, 0
251, 2, T_Scon, T_Scon_DRRR, 501.3, hit, 2, 0
252, 2, T_Sinc, T_Sinc_URRR, 360.7, hit, 2, 0
253, 2, T_Sinc, T_Sinc_URRR, 451.9, hit, 2, 0
254, 2, T_Scon, T_Scon_DRRR, 383.3, hit, 2, 0
255, 2, T_Scon, T_Scon_UGLG, 434.8, hit, 1, 0
256, 2, T_Scon, T_Scon_UGLG, 322.3, hit, 1, 0
257, 2, T_Scon, T_Scon_UGLG, 297.7, hit, 1, 0
258, 2, T_Scon, T_Scon_DRRR, 337.2, hit, 2, 0
259, 2, T_Scon, T_Scon_DRRR, 320.5, hit, 2, 0
260, 2, T_Scon, T_Scon_UGLG, 336.0, hit, 1, 0
261, 2, T_Scon, T_Scon_UGLG, 275.4, hit, 1, 0
262, 2, T_Scon, T_Scon_UGLG, 378.9, hit, 1, 0
263, 2, T_Sinc, T_Sinc_URRR, 494.3, hit, 2, 0
264, 2, T_Scon, T_Scon_UGLG, 465.8, hit, 1, 0
265, 2, T_Sinc, T_Sinc_DGLG, 597.2, hit, 1, 0
266, 2, T_Sinc, T_Sinc_DGLG, 432.7, hit, 1, 0
267, 2, T_Scon, T_Scon_UGLG, 416.0, incorrect, 2, 1
268, 2, T_Scon, T_Scon_DRRR, 455.5, hit, 2, 0
269, 2, T_Scon, T_Scon_DRRR, 338.9, hit, 2, 0
270, 2, T_Scon, T_Scon_UGLG, 302.4, hit, 1, 0
271, 2, T_Scon, T_Scon_UGLG, 313.9, hit, 1, 0
272, 2, T_Scon, T_Scon_DRRR, 389.3, hit, 2, 0
273, 2, T_Scon, T_Scon_UGLG, 268.8, hit, 1, 0
274, 2, T_Sinc, T_Sinc_URRR, 420.2, incorrect, 1, 1
275, 2, T_Scon, T_Scon_DRRR, 491.6, hit, 2, 0
276, 2, T_Sinc, T_Sinc_URRR, 483.0, hit, 2, 0
277, 2, T_Scon, T_Scon_DRRR, 362.5, hit, 2, 0
278, 2, T_Scon, T_Scon_DRRR, 305.9, hit, 2, 0
279, 2, T_Sinc, T_Sinc_DGLG, 449.4, hit, 1, 0
280, 2, T_Sinc, T_Sinc_URRR, 428.8, hit, 2, 0
281, 2, T_Scon, T_Scon_DRRR, 384.3, hit, 2, 0
282, 2, T_Scon, T_Scon_UGLG, 427.6, hit, 1, 0
283, 2, T_Scon, T_Scon_UGLG, 311.1, hit, 1, 0
284, 2, T_Scon, T_Scon_UGLG, 274.5, hit, 1, 0
285, 2, T_Scon, T_Scon_UGLG, 298.0, hit, 1, 0
286, 2, T_Sinc, T_Sinc_DGLG, 365.5, hit, 1, 0
287, 2, T_Scon, T_Scon_UGLG, 364.9, hit, 1, 0
288, 2, T_Scon, T_Scon_DRRR, 480.4, hit, 2, 0
289, 3, T_Scon, T_Scon_DRRR, 419.0, hit, 2, 0
290, 3, T_Scon, T_Scon_UGLG, 350.5, hit, 1, 0
291, 3, T_Sinc, T_Sinc_DGLG, 293.9, incorrect, 2, 1
292, 3, T_Sinc, T_Sinc_DGLG, 517.3, hit, 1, 0
293, 3, T_Scon, T_Scon_UGLG, 304.8, hit, 1, 0
294, 3, T_Scon, T_Scon_DRRR, 332.3, hit, 2, 0
295, 3, T_Scon, T_Scon_DRRR, 275.6, hit, 2, 0
296, 3, T_Scon, T_Scon_UGLG, 279.1, hit, 1, 0
297, 3, T_Scon, T_Scon_DRRR, 498.5, hit, 2, 0
298, 3, T_Scon, T_Scon_DRRR, 330.0, hit, 2, 0
299, 3, T_Scon, T_Scon_UGLG, 333.4, hit, 1, 0
300, 3, T_Scon, T_Scon_DRRR, 360.9, hit, 2, 0
301, 3, T_Scon, T_Scon_UGLG, 292.2, hit, 1, 0
302, 3, T_Scon, T_Scon_UGLG, 307.7, hit, 1, 0
303, 3, T_Scon, T_Scon_UGLG, 339.2, hit, 1, 0
304, 3, T_Scon, T_Scon_DRRR, 294.6, hit, 2, 0
305, 3, T_Scon, T_Scon_DRRR, 242.1, hit, 2, 0
306, 3, T_Sinc, T_Sinc_DGLG, 629.5, hit, 1, 0
307, 3, T_Scon, T_Scon_DRRR, 616.9, hit, 2, 0
308, 3, T_Scon, T_Scon_DRRR, 404.4, hit, 2, 0
309, 3, T_Scon, T_Scon_DRRR, 359.8, hit, 2, 0
310, 3, T_Sinc, T_Sinc_URRR, 499.2, hit, 2, 0
311, 3, T_Scon, T_Scon_DRRR, 322.6, hit, 2, 0
312, 3, T_Scon, T_Scon_UGLG, 350.1, hit, 1, 0
313, 3, T_Sinc, T_Sinc_DGLG, 353.6, hit, 1, 0
314, 3, T_Scon, T_Scon_DRRR, 549.0, hit, 2, 0
315, 3, T_Scon, T_Scon_DRRR, 352.4, hit, 2, 0
316, 3, T_Sinc, T_Sinc_DGLG, 407.8, hit, 1, 0
317, 3, T_Sinc, T_Sinc_DGLG, 331.3, hit, 1, 0
318, 3, T_Scon, T_Scon_UGLG, 342.8, hit, 1, 0
319, 3, T_Scon, T_Scon_DRRR, 374.2, hit, 2, 0
320, 3, T_Scon, T_Scon_UGLG, 353.6, hit, 1, 0
321, 3, T_Sinc, T_Sinc_URRR, 733.1, hit, 2, 0
322, 3, T_Scon, T_Scon_UGLG, 320.5, hit, 1, 0
323, 3, T_Scon, T_Scon_DRRR, 503.9, hit, 2, 0
324, 3, T_Scon, T_Scon_DRRR, 363.4, hit, 2, 0
325, 3, T_Scon, T_Scon_UGLG, 654.6, hit, 1, 0
326, 3, T_Sinc, T_Sinc_DGLG, 386.0, hit, 1, 0
327, 3, T_Scon, T_Scon_DRRR, 361.5, incorrect, 1, 1
328, 3, T_Scon, T_Scon_UGLG, 304.9, hit, 1, 0
329, 3, T_Sinc, T_Sinc_URRR, 296.3, hit, 2, 0
330, 3, T_Scon, T_Scon_UGLG, 391.7, hit, 1, 0
331, 3, T_Scon, T_Scon_UGLG, 403.2, hit, 1, 0
332, 3, T_Scon, T_Scon_DRRR, 278.6, hit, 2, 0
333, 3, T_Scon, T_Scon_DRRR, 294.1, hit, 2, 0
334, 3, T_Scon, T_Scon_DRRR, 317.5, hit, 2, 0
335, 3, T_Sinc, T_Sinc_DGLG, 565.0, hit, 1, 0
336, 3, T_Sinc, T_Sinc_DGLG, 360.3, hit, 1, 0
337, 3, T_Scon, T_Scon_UGLG, 427.8, hit, 1, 0
338, 3, T_Scon, T_Scon_DRRR, 343.3, hit, 2, 0
339, 3, T_Scon, T_Scon_UGLG, 346.7, hit, 1, 0
340, 3, T_Scon, T_Scon_DRRR, 334.1, hit, 2, 0
341, 3, T_Sinc, T_Sinc_URRR, 433.6, hit, 2, 0
342, 3, T_Scon, T_Scon_UGLG, 537.1, hit, 1, 0
343, 3, T_Scon, T_Scon_DRRR, 408.5, hit, 2, 0
344, 3, T_Scon, T_Scon_DRRR, 299.8, hit, 2, 0
345, 3, T_Scon, T_Scon_UGLG, 287.3, hit, 1, 0
346, 3, T_Scon, T_Scon_DRRR, 366.7, hit, 2, 0
347, 3, T_Sinc, T_Sinc_URRR, 390.2, hit, 2, 0
348, 3, T_Scon, T_Scon_UGLG, 373.7, hit, 1, 0
349, 3, T_Sinc, T_Sinc_DGLG, 501.1, hit, 1, 0
350, 3, T_Sinc, T_Sinc_URRR, 400.6, hit, 2, 0
351, 3, T_Scon, T_Scon_DRRR, 436.0, hit, 2, 0
352, 3, T_Sinc, T_Sinc_DGLG, 335.5, hit, 1, 0
353, 3, T_Scon, T_Scon_DRRR, 411.0, hit, 2, 0
354, 3, T_Scon, T_Scon_DRRR, 390.4, hit, 2, 0
355, 3, T_Sinc, T_Sinc_URRR, 441.8, hit, 2, 0
356, 3, T_Scon, T_Scon_UGLG, 365.2, hit, 1, 0
357, 3, T_Sinc, T_Sinc_DGLG, 360.6, hit, 1, 0
358, 3, T_Scon, T_Scon_UGLG, 316.1, hit, 1, 0
359, 3, T_Scon, T_Scon_UGLG, 383.6, hit, 1, 0
360, 3, T_Scon, T_Scon_DRRR, 399.0, hit, 2, 0
361, 3, T_Sinc, T_Sinc_DGLG, 558.1, hit, 1, 0
362, 3, T_Scon, T_Scon_UGLG, 337.5, hit, 1, 0
363, 3, T_Scon, T_Scon_UGLG, 333.0, hit, 1, 0
364, 3, T_Scon, T_Scon_DRRR, 344.4, hit, 2, 0
365, 3, T_Scon, T_Scon_UGLG, 379.9, hit, 1, 0
366, 3, T_Scon, T_Scon_UGLG, 343.3, hit, 1, 0
367, 3, T_Sinc, T_Sinc_URRR, 466.8, hit, 2, 0
368, 3, T_Scon, T_Scon_UGLG, 326.2, hit, 1, 0
369, 3, T_Scon, T_Scon_DRRR, 321.6, hit, 2, 0
370, 3, T_Scon, T_Scon_UGLG, 349.1, hit, 1, 0
371, 3, T_Scon, T_Scon_DRRR, 280.5, hit, 2, 0
372, 3, T_Scon, T_Scon_DRRR, 340.0, hit, 2, 0
373, 3, T_Scon, T_Scon_UGLG, 263.4, hit, 1, 0
374, 3, T_Scon, T_Scon_UGLG, 250.9, hit, 1, 0
375, 3, T_Scon, T_Scon_UGLG, 262.3, hit, 1, 0
376, 3, T_Scon, T_Scon_DRRR, 245.7, hit, 2, 0
377, 3, T_Scon, T_Scon_UGLG, 333.1, hit, 1, 0
378, 3, T_Scon, T_Scon_UGLG, 344.6, hit, 1, 0
379, 3, T_Scon, T_Scon_DRRR, 316.0, hit, 2, 0
380, 3, T_Scon, T_Scon_DRRR, 295.5, hit, 2, 0
381, 3, T_Scon, T_Scon_UGLG, 319.0, hit, 1, 0
382, 3, T_Scon, T_Scon_UGLG, 314.3, hit, 1, 0
383, 3, T_Scon, T_Scon_DRRR, 305.8, hit, 2, 0
384, 3, T_Sinc, T_Sinc_URRR, 321.2, incorrect, 1, 1
385, 3, T_Scon, T_Scon_UGLG, 268.7, hit, 1, 0
386, 3, T_Scon, T_Scon_DRRR, 300.1, hit, 2, 0
387, 3, T_Scon, T_Scon_UGLG, 251.6, hit, 1, 0
388, 3, T_Scon, T_Scon_DRRR, 371.0, hit, 2, 0
389, 3, T_Scon, T_Scon_UGLG, 394.4, hit, 1, 0
390, 3, T_Sinc, T_Sinc_URRR, 321.8, hit, 2, 0
391, 3, T_Scon, T_Scon_UGLG, 445.3, hit, 1, 0
392, 3, T_Sinc, T_Sinc_DGLG, 320.7, incorrect, 2, 1
393, 3, T_Scon, T_Scon_UGLG, 412.2, hit, 1, 0
394, 3, T_Sinc, T_Sinc_URRR, 487.7, hit, 2, 0
395, 3, T_Sinc, T_Sinc_URRR, 339.0, hit, 2, 0
396, 3, T_Scon, T_Scon_DRRR, 346.5, hit, 2, 0
397, 3, T_Sinc, T_Sinc_URRR, 313.7, hit, 2, 0
398, 3, T_Scon, T_Scon_UGLG, 349.1, hit, 1, 0
399, 3, T_Scon, T_Scon_DRRR, 300.6, hit, 2, 0
400, 3, T_Scon, T_Scon_UGLG, 408.0, hit, 1, 0
401, 3, T_Scon, T_Scon_UGLG, 383.4, hit, 1, 0
402, 3, T_Scon, T_Scon_UGLG, 330.9, hit, 1, 0
403, 3, T_Scon, T_Scon_DRRR, 358.4, hit, 2, 0
404, 3, T_Scon, T_Scon_DRRR, 257.8, hit, 2, 0
405, 3, T_Scon, T_Scon_DRRR, 309.2, hit, 2, 0
406, 3, T_Scon, T_Scon_UGLG, 392.6, incorrect, 2, 1
407, 3, T_Scon, T_Scon_DRRR, 356.1, hit, 2, 0
408, 3, T_Sinc, T_Sinc_URRR, 415.5, hit, 2, 0
409, 3, T_Scon, T_Scon_UGLG, 283.0, hit, 1, 0
410, 3, T_Scon, T_Scon_DRRR, 382.4, hit, 2, 0
411, 3, T_Sinc, T_Sinc_DGLG, 357.9, hit, 1, 0
412, 3, T_Sinc, T_Sinc_URRR, 565.2, hit, 2, 0
413, 3, T_Scon, T_Scon_DRRR, 356.7, hit, 2, 0
414, 3, T_Sinc, T_Sinc_DGLG, 308.2, hit, 1, 0
415, 3, T_Sinc, T_Sinc_URRR, 407.6, hit, 2, 0
416, 3, T_Scon, T_Scon_UGLG, 311.1, hit, 1, 0
417, 3, T_Scon, T_Scon_UGLG, 318.5, hit, 1, 0
418, 3, T_Sinc, T_Sinc_URRR, 309.9, hit, 2, 0
419, 3, T_Scon, T_Scon_DRRR, 281.4, hit, 2, 0
420, 3, T_Scon, T_Scon_DRRR, 296.8, hit, 2, 0
421, 3, T_Scon, T_Scon_DRRR, 340.2, hit, 2, 0
422, 3, T_Scon, T_Scon_DRRR, 319.7, hit, 2, 0
423, 3, T_Scon, T_Scon_UGLG, 307.1, hit, 1, 0
424, 3, T_Sinc, T_Sinc_DGLG, 366.6, hit, 1, 0
425, 3, T_Sinc, T_Sinc_DGLG, 410.0, hit, 1, 0
426, 3, T_Scon, T_Scon_UGLG, 493.5, hit, 1, 0
427, 3, T_Scon, T_Scon_DRRR, 544.9, hit, 2, 0
428, 3, T_Sinc, T_Sinc_URRR, 548.4, hit, 2, 0
429, 3, T_Scon, T_Scon_UGLG, 331.7, hit, 1, 0
430, 3, T_Scon, T_Scon_UGLG, 335.2, hit, 1, 0
431, 3, T_Scon, T_Scon_UGLG, 346.6, hit, 1, 0
432, 3, T_Scon, T_Scon_DRRR, 370.1, hit, 2, 0
433, 4, T_Sinc, T_Sinc_URRR, 464.7, hit, 2, 0
434, 4, T_Sinc, T_Sinc_URRR, 340.0, hit, 2, 0
435, 4, T_Sinc, T_Sinc_DGLG, 795.5, hit, 1, 2
436, 4, T_Sinc, T_Sinc_URRR, 406.9, hit, 2, 0
437, 4, T_Sinc, T_Sinc_DGLG, 298.4, hit, 1, 0
438, 4, T_Sinc, T_Sinc_DGLG, 389.9, hit, 1, 0
439, 4, T_Sinc, T_Sinc_URRR, 489.3, hit, 2, 0
440, 4, T_Scon, T_Scon_DRRR, 268.7, hit, 2, 0
441, 4, T_Sinc, T_Sinc_URRR, 352.1, hit, 2, 0
442, 4, T_Sinc, T_Sinc_DGLG, 223.6, hit, 1, 0
443, 4, T_Scon, T_Scon_DRRR, 331.0, hit, 2, 0
444, 4, T_Sinc, T_Sinc_URRR, 370.5, hit, 2, 0
445, 4, T_Sinc, T_Sinc_URRR, 317.9, hit, 2, 0
446, 4, T_Scon, T_Scon_DRRR, 345.4, hit, 2, 0
447, 4, T_Scon, T_Scon_UGLG, 452.8, hit, 1, 0
448, 4, T_Scon, T_Scon_DRRR, 360.2, hit, 2, 0
449, 4, T_Scon, T_Scon_UGLG, 323.7, hit, 1, 0
450, 4, T_Sinc, T_Sinc_DGLG, 331.1, incorrect, 2, 1
451, 4, T_Sinc, T_Sinc_DGLG, 582.6, hit, 1, 0
452, 4, T_Sinc, T_Sinc_URRR, 321.9, hit, 2, 0
453, 4, T_Sinc, T_Sinc_DGLG, 413.4, hit, 1, 0
454, 4, T_Sinc, T_Sinc_DGLG, 460.8, hit, 1, 0
455, 4, T_Sinc, T_Sinc_DGLG, 476.3, hit, 1, 0
456, 4, T_Sinc, T_Sinc_URRR, 355.7, hit, 2, 0
457, 4, T_Sinc, T_Sinc_URRR, 279.2, hit, 2, 0
458, 4, T_Sinc, T_Sinc_DGLG, 394.6, hit, 1, 0
459, 4, T_Sinc, T_Sinc_DGLG, 278.1, hit, 1, 0
460, 4, T_Scon, T_Scon_DRRR, 421.4, hit, 2, 0
461, 4, T_Sinc, T_Sinc_DGLG, 348.9, hit, 1, 0
462, 4, T_Sinc, T_Sinc_DGLG, 288.3, hit, 1, 0
463, 4, T_Sinc, T_Sinc_URRR, 371.8, hit, 2, 0
464, 4, T_Sinc, T_Sinc_URRR, 355.2, hit, 2, 0
465, 4, T_Sinc, T_Sinc_URRR, 302.7, hit, 2, 0
466, 4, T_Scon, T_Scon_DRRR, 534.2, hit, 2, 0
467, 4, T_Scon, T_Scon_DRRR, 377.6, hit, 2, 0
468, 4, T_Sinc, T_Sinc_URRR, 317.0, hit, 2, 0
469, 4, T_Sinc, T_Sinc_DGLG, 1128.2, hit, 1, 2
470, 4, T_Sinc, T_Sinc_DGLG, 355.6, hit, 1, 0
471, 4, T_Scon, T_Scon_DRRR, 367.1, hit, 2, 0
472, 4, T_Scon, T_Scon_UGLG, 354.5, hit, 1, 0
473, 4, T_Sinc, T_Sinc_URRR, 373.9, incorrect, 1, 1
474, 4, T_Scon, T_Scon_UGLG, 337.4, hit, 1, 0
475, 4, T_Sinc, T_Sinc_DGLG, 324.9, hit, 1, 0
476, 4, T_Sinc, T_Sinc_URRR, 340.3, hit, 2, 0
477, 4, T_Sinc, T_Sinc_URRR, 279.7, hit, 2, 0
478, 4, T_Sinc, T_Sinc_URRR, 343.1, hit, 2, 0
479, 4, T_Sinc, T_Sinc_URRR, 278.6, hit, 2, 0
480, 4, T_Sinc, T_Sinc_DGLG, 350.0, hit, 1, 0
481, 4, T_Sinc, T_Sinc_URRR, 417.5, hit, 2, 0
482, 4, T_Sinc, T_Sinc_URRR, 380.9, hit, 2, 0
483, 4, T_Sinc, T_Sinc_URRR, 376.4, hit, 2, 0
484, 4, T_Scon, T_Scon_DRRR, 299.8, hit, 2, 0
485, 4, T_Scon, T_Scon_UGLG, 375.2, hit, 1, 0
486, 4, T_Sinc, T_Sinc_DGLG, 418.6, hit, 1, 0
487, 4, T_Sinc, T_Sinc_DGLG, 386.1, hit, 1, 0
488, 4, T_Sinc, T_Sinc_URRR, 493.6, hit, 2, 0
489, 4, T_Sinc, T_Sinc_DGLG, 565.0, hit, 1, 0
490, 4, T_Sinc, T_Sinc_DGLG, 292.5, hit, 1, 0
491, 4, T_Sinc, T_Sinc_URRR, 375.8, hit, 2, 0
492, 4, T_Sinc, T_Sinc_DGLG, 331.2, hit, 1, 0
493, 4, T_Sinc, T_Sinc_DGLG, 430.7, hit, 1, 0
494, 4, T_Sinc, T_Sinc_URRR, 410.2, hit, 2, 0
495, 4, T_Sinc, T_Sinc_URRR, 293.6, hit, 2, 0
496, 4, T_Sinc, T_Sinc_URRR, 349.1, hit, 2, 0
497, 4, T_Sinc, T_Sinc_DGLG, 476.4, hit, 1, 0
498, 4, T_Scon, T_Scon_DRRR, 423.9, hit, 2, 0
499, 4, T_Sinc, T_Sinc_DGLG, 547.3, hit, 1, 0
500, 4, T_Sinc, T_Sinc_DGLG, 214.8, incorrect, 2, 1
501, 4, T_Scon, T_Scon_UGLG, 662.2, hit, 1, 0
502, 4, T_Scon, T_Scon_DRRR, 389.7, hit, 2, 0
503, 4, T_Scon, T_Scon_UGLG, 349.2, hit, 1, 0
504, 4, T_Scon, T_Scon_UGLG, 384.6, hit, 1, 0
505, 4, T_Sinc, T_Sinc_DGLG, 851.7, hit, 1, 2
506, 4, T_Sinc, T_Sinc_DGLG, 327.1, hit, 1, 0
507, 4, T_Scon, T_Scon_DRRR, 430.6, hit, 2, 0
508, 4, T_Sinc, T_Sinc_DGLG, 362.1, hit, 1, 0
509, 4, T_Sinc, T_Sinc_DGLG, 341.5, hit, 1, 0
510, 4, T_Scon, T_Scon_UGLG, 445.0, hit, 1, 0
511, 4, T_Sinc, T_Sinc_URRR, 460.4, hit, 2, 0
512, 4, T_Sinc, T_Sinc_DGLG, 455.9, hit, 1, 0
513, 4, T_Sinc, T_Sinc_URRR, 259.2, hit, 2, 0
514, 4, T_Sinc, T_Sinc_URRR, 254.6, hit, 2, 0
515, 4, T_Sinc, T_Sinc_URRR, 282.1, hit, 2, 0
516, 4, T_Sinc, T_Sinc_DGLG, 321.6, hit, 1, 0
517, 4, T_Sinc, T_Sinc_URRR, 421.0, hit, 2, 0
518, 4, T_Sinc, T_Sinc_URRR, 240.5, hit, 2, 0
519, 4, T_Scon, T_Scon_UGLG, 371.9, hit, 1, 0
520, 4, T_Sinc, T_Sinc_DGLG, 347.3, hit, 1, 0
521, 4, T_Sinc, T_Sinc_URRR, 222.7, hit, 2, 0
522, 4, T_Scon, T_Scon_DRRR, 282.2, hit, 2, 0
523, 4, T_Sinc, T_Sinc_URRR, 337.7, hit, 2, 0
524, 4, T_Sinc, T_Sinc_URRR, 361.1, hit, 2, 0
525, 4, T_Sinc, T_Sinc_DGLG, 412.5, hit, 1, 0
526, 4, T_Sinc, T_Sinc_DGLG, 280.0, hit, 1, 0
527, 4, T_Sinc, T_Sinc_DGLG, 259.5, hit, 1, 0
528, 4, T_Sinc, T_Sinc_URRR, 359.0, hit, 2, 0
529, 4, T_Sinc, T_Sinc_DGLG, 434.3, hit, 1, 0
530, 4, T_Scon, T_Scon_DRRR, 341.7, hit, 2, 0
531, 4, T_Scon, T_Scon_UGLG, 305.1, incorrect, 2, 1
532, 4, T_Sinc, T_Sinc_URRR, 316.6, hit, 2, 0
533, 4, T_Sinc, T_Sinc_URRR, 340.1, hit, 2, 0
534, 4, T_Sinc, T_Sinc_DGLG, 279.5, hit, 1, 0
535, 4, T_Scon, T_Scon_UGLG, 254.9, hit, 1, 0
536, 4, T_Scon, T_Scon_UGLG, 314.3, hit, 1, 0
537, 4, T_Sinc, T_Sinc_DGLG, 297.8, hit, 1, 0
538, 4, T_Scon, T_Scon_UGLG, 325.3, hit, 1, 0
539, 4, T_Sinc, T_Sinc_URRR, 352.7, hit, 2, 0
540, 4, T_Sinc, T_Sinc_DGLG, 380.2, hit, 1, 0
541, 4, T_Sinc, T_Sinc_DGLG, 435.3, hit, 1, 0
542, 4, T_Sinc, T_Sinc_DGLG, 338.7, hit, 1, 0
543, 4, T_Sinc, T_Sinc_DGLG, 358.2, hit, 1, 0
544, 4, T_Sinc, T_Sinc_URRR, 341.6, hit, 2, 0
545, 4, T_Scon, T_Scon_DRRR, 333.1, hit, 2, 0
546, 4, T_Sinc, T_Sinc_URRR, 344.5, hit, 2, 0
547, 4, T_Sinc, T_Sinc_DGLG, 468.0, hit, 1, 0
548, 4, T_Sinc, T_Sinc_DGLG, 307.4, hit, 1, 0
549, 4, T_Sinc, T_Sinc_DGLG, 262.8, hit, 1, 0
550, 4, T_Sinc, T_Sinc_DGLG, 342.2, hit, 1, 0
551, 4, T_Sinc, T_Sinc_DGLG, 273.7, hit, 1, 0
552, 4, T_Sinc, T_Sinc_URRR, 377.1, hit, 2, 0
553, 4, T_Sinc, T_Sinc_URRR, 344.6, hit, 2, 0
554, 4, T_Sinc, T_Sinc_URRR, 312.0, hit, 2, 0
555, 4, T_Sinc, T_Sinc_URRR, 371.5, hit, 2, 0
556, 4, T_Sinc, T_Sinc_DGLG, 346.9, hit, 1, 0
557, 4, T_Sinc, T_Sinc_DGLG, 310.4, hit, 1, 0
558, 4, T_Scon, T_Scon_UGLG, 417.8, incorrect, 2, 1
559, 4, T_Sinc, T_Sinc_DGLG, 405.2, hit, 1, 0
560, 4, T_Sinc, T_Sinc_URRR, 392.6, hit, 2, 0
561, 4, T_Scon, T_Scon_UGLG, 436.1, hit, 1, 0
562, 4, T_Sinc, T_Sinc_URRR, 495.6, hit, 2, 0
563, 4, T_Sinc, T_Sinc_URRR, 427.0, incorrect, 1, 1
564, 4, T_Sinc, T_Sinc_DGLG, 334.5, hit, 1, 0
565, 4, T_Sinc, T_Sinc_DGLG, 389.9, hit, 1, 0
566, 4, T_Sinc, T_Sinc_URRR, 317.3, hit, 2, 0
567, 4, T_Scon, T_Scon_DRRR, 288.7, hit, 2, 0
568, 4, T_Sinc, T_Sinc_URRR, 608.2, hit, 2, 0
569, 4, T_Sinc, T_Sinc_DGLG, 347.6, hit, 1, 0
570, 4, T_Sinc, T_Sinc_URRR, 327.1, hit, 2, 0
571, 4, T_Sinc, T_Sinc_URRR, 346.5, hit, 2, 0
572, 4, T_Scon, T_Scon_UGLG, 486.0, hit, 1, 0
573, 4, T_Scon, T_Scon_DRRR, 705.4, hit, 2, 0
574, 4, T_Scon, T_Scon_DRRR, 444.9, hit, 2, 0
575, 4, T_Scon, T_Scon_UGLG, 356.3, hit, 1, 0
576, 4, T_Sinc, T_Sinc_URRR, 423.7, hit, 2, 0
577, 5, T_Sinc, T_Sinc_URRR, 757.3, hit, 2, 0
578, 5, T_Sinc, T_Sinc_DGLG, 448.7, hit, 1, 0
579, 5, T_Scon, T_Scon_UGLG, 396.1, hit, 1, 0
580, 5, T_Sinc, T_Sinc_DGLG, 311.5, hit, 1, 0
581, 5, T_Scon, T_Scon_UGLG, 363.0, hit, 1, 0
582, 5, T_Scon, T_Scon_UGLG, 346.4, hit, 1, 0
583, 5, T_Sinc, T_Sinc_DGLG, 293.9, hit, 1, 0
584, 5, T_Sinc, T_Sinc_URRR, 473.2, hit, 2, 0
585, 5, T_Sinc, T_Sinc_DGLG, 352.7, hit, 1, 0
586, 5, T_Sinc, T_Sinc_URRR, 332.2, hit, 2, 0
587, 5, T_Sinc, T_Sinc_DGLG, 303.6, hit, 1, 0
588, 5, T_Scon, T_Scon_DRRR, 323.1, hit, 2, 0
589, 5, T_Sinc, T_Sinc_DGLG, 302.5, hit, 1, 0
590, 5, T_Scon, T_Scon_DRRR, 506.0, hit, 2, 0
591, 5, T_Sinc, T_Sinc_DGLG, 377.3, hit, 1, 0
592, 5, T_Scon, T_Scon_DRRR, 348.8, hit, 2, 0
593, 5, T_Sinc, T_Sinc_DGLG, 1032.2, hit, 1, 2
594, 5, T_Sinc, T_Sinc_URRR, 303.7, hit, 2, 0
595, 5, T_Sinc, T_Sinc_DGLG, 295.1, hit, 1, 0
596, 5, T_Sinc, T_Sinc_URRR, 306.6, hit, 2, 0
597, 5, T_Scon, T_Scon_UGLG, 374.0, hit, 1, 0
598, 5, T_Sinc, T_Sinc_DGLG, 681.4, hit, 1, 0
599, 5, T_Sinc, T_Sinc_DGLG, 428.8, hit, 1, 0
600, 5, T_Sinc, T_Sinc_DGLG, 380.3, hit, 1, 0
601, 5, T_Sinc, T_Sinc_DGLG, 223.8, hit, 1, 0
602, 5, T_Sinc, T_Sinc_DGLG, 395.2, hit, 1, 0
603, 5, T_Sinc, T_Sinc_DGLG, 750.6, hit, 1, 0
604, 5, T_Sinc, T_Sinc_URRR, 442.1, hit, 2, 0
605, 5, T_Scon, T_Scon_UGLG, 461.5, hit, 1, 0
606, 5, T_Sinc, T_Sinc_DGLG, 264.9, hit, 1, 0
607, 5, T_Sinc, T_Sinc_DGLG, 348.4, hit, 1, 0
608, 5, T_Scon, T_Scon_UGLG, 359.8, hit, 1, 0
609, 5, T_Scon, T_Scon_DRRR, 395.3, hit, 2, 0
610, 5, T_Sinc, T_Sinc_DGLG, 326.7, hit, 1, 0
611, 5, T_Scon, T_Scon_DRRR, 354.2, hit, 2, 0
612, 5, T_Sinc, T_Sinc_DGLG, 357.6, incorrect, 2, 1
613, 5, T_Sinc, T_Sinc_URRR, 424.9, hit, 2, 0
614, 5, T_Sinc, T_Sinc_URRR, 364.2, hit, 2, 0
615, 5, T_Sinc, T_Sinc_DGLG, 287.6, hit, 1, 0
616, 5, T_Sinc, T_Sinc_DGLG, 283.1, hit, 1, 0
617, 5, T_Scon, T_Scon_DRRR, 398.5, hit, 2, 0
618, 5, T_Sinc, T_Sinc_DGLG, 390.0, hit, 1, 0
619, 5, T_Sinc, T_Sinc_DGLG, 465.5, hit, 1, 0
620, 5, T_Sinc, T_Sinc_DGLG, 332.9, hit, 1, 0
621, 5, T_Sinc, T_Sinc_URRR, 584.2, hit, 2, 0
622, 5, T_Sinc, T_Sinc_DGLG, 403.7, hit, 1, 0
623, 5, T_Sinc, T_Sinc_URRR, 403.2, hit, 2, 0
624, 5, T_Sinc, T_Sinc_DGLG, 326.6, hit, 1, 0
625, 5, T_Sinc, T_Sinc_DGLG, 250.1, hit, 1, 0
626, 5, T_Sinc, T_Sinc_URRR, 365.5, hit, 2, 0
627, 5, T_Scon, T_Scon_UGLG, 564.9, hit, 1, 0
628, 5, T_Sinc, T_Sinc_URRR, 592.3, hit, 2, 0
629, 5, T_Sinc, T_Sinc_DGLG, 367.8, hit, 1, 0
630, 5, T_Sinc, T_Sinc_URRR, 551.2, hit, 2, 0
631, 5, T_Sinc, T_Sinc_URRR, 342.7, hit, 2, 0
632, 5, T_Sinc, T_Sinc_DGLG, 346.1, hit, 1, 0
633, 5, T_Scon, T_Scon_DRRR, 525.6, hit, 2, 0
634, 5, T_Sinc, T_Sinc_URRR, 432.9, hit, 2, 0
635, 5, T_Scon, T_Scon_DRRR, 300.4, hit, 2, 0
636, 5, T_Sinc, T_Sinc_DGLG, 343.9, hit, 1, 0
637, 5, T_Sinc, T_Sinc_URRR, 367.3, hit, 2, 0
638, 5, T_Sinc, T_Sinc_URRR, 298.8, hit, 2, 0
639, 5, T_Sinc, T_Sinc_DGLG, 430.2, hit, 1, 0
640, 5, T_Scon, T_Scon_UGLG, 349.7, hit, 1, 0
641, 5, T_Scon, T_Scon_DRRR, 417.1, hit, 2, 0
642, 5, T_Sinc, T_Sinc_URRR, 256.5, hit, 2, 0
643, 5, T_Sinc, T_Sinc_URRR, 319.9, hit, 2, 0
644, 5, T_Sinc, T_Sinc_URRR, 395.4, hit, 2, 0
645, 5, T_Sinc, T_Sinc_DGLG, 342.8, hit, 1, 0
646, 5, T_Scon, T_Scon_UGLG, 334.3, hit, 1, 0
647, 5, T_Sinc, T_Sinc_URRR, 593.7, hit, 2, 0
648, 5, T_Sinc, T_Sinc_URRR, 265.2, hit, 2, 0
649, 5, T_Scon, T_Scon_UGLG, 456.4, hit, 1, 0
650, 5, T_Sinc, T_Sinc_URRR, 299.8, hit, 2, 0
651, 5, T_Scon, T_Scon_UGLG, 335.3, incorrect, 2, 1
652, 5, T_Sinc, T_Sinc_DGLG, 374.7, hit, 1, 0
653, 5, T_Scon, T_Scon_UGLG, 386.1, hit, 1, 0
654, 5, T_Sinc, T_Sinc_URRR, 561.5, hit, 2, 0
655, 5, T_Scon, T_Scon_DRRR, 325.0, hit, 2, 0
656, 5, T_Scon, T_Scon_DRRR, 316.4, hit, 2, 0
657, 5, T_Scon, T_Scon_UGLG, 411.9, hit, 1, 0
658, 5, T_Scon, T_Scon_DRRR, 395.3, hit, 2, 0
659, 5, T_Sinc, T_Sinc_DGLG, 826.8, hit, 1, 2
660, 5, T_Sinc, T_Sinc_URRR, 350.2, hit, 2, 0
661, 5, T_Scon, T_Scon_DRRR, 457.7, hit, 2, 0
662, 5, T_Sinc, T_Sinc_URRR, 469.0, hit, 2, 0
663, 5, T_Scon, T_Scon_DRRR, 380.5, hit, 2, 0
664, 5, T_Sinc, T_Sinc_URRR, 303.9, hit, 2, 0
665, 5, T_Sinc, T_Sinc_DGLG, 323.4, hit, 1, 0
666, 5, T_Sinc, T_Sinc_DGLG, 318.9, hit, 1, 0
667, 5, T_Sinc, T_Sinc_DGLG, 254.3, hit, 1, 0
668, 5, T_Scon, T_Scon_UGLG, 321.8, hit, 1, 0
669, 5, T_Scon, T_Scon_DRRR, 409.2, hit, 2, 0
670, 5, T_Sinc, T_Sinc_DGLG, 488.6, hit, 1, 0
671, 5, T_Sinc, T_Sinc_URRR, 296.0, hit, 2, 0
672, 5, T_Sinc, T_Sinc_DGLG, 315.5, hit, 1, 0
673, 5, T_Scon, T_Scon_UGLG, 514.9, hit, 1, 0
674, 5, T_Sinc, T_Sinc_DGLG, 406.4, hit, 1, 0
675, 5, T_Sinc, T_Sinc_URRR, 353.8, hit, 2, 0
676, 5, T_Sinc, T_Sinc_URRR, 325.2, hit, 2, 0
677, 5, T_Sinc, T_Sinc_URRR, 296.6, hit, 2, 0
678, 5, T_Scon, T_Scon_UGLG, 464.1, hit, 1, 0
679, 5, T_Sinc, T_Sinc_DGLG, 271.5, hit, 1, 0
680, 5, T_Sinc, T_Sinc_DGLG, 327.0, hit, 1, 0
681, 5, T_Sinc, T_Sinc_URRR, 250.5, hit, 2, 0
682, 5, T_Sinc, T_Sinc_URRR, 289.9, hit, 2, 0
683, 5, T_Sinc, T_Sinc_URRR, 429.4, hit, 2, 0
684, 5, T_Sinc, T_Sinc_URRR, 252.7, hit, 2, 0
685, 5, T_Sinc, T_Sinc_URRR, 399.9, hit, 2, 0
686, 5, T_Scon, T_Scon_DRRR, 319.4, hit, 2, 0
687, 5, T_Sinc, T_Sinc_URRR, 274.8, hit, 2, 0
688, 5, T_Sinc, T_Sinc_URRR, 242.3, hit, 2, 0
689, 5, T_Sinc, T_Sinc_URRR, 369.7, hit, 2, 0
690, 5, T_Sinc, T_Sinc_DGLG, 313.2, hit, 1, 0
691, 5, T_Sinc, T_Sinc_DGLG, 300.6, hit, 1, 0
692, 5, T_Sinc, T_Sinc_URRR, 408.0, hit, 2, 0
693, 5, T_Scon, T_Scon_UGLG, 407.4, hit, 1, 0
694, 5, T_Sinc, T_Sinc_URRR, 458.9, hit, 2, 0
695, 5, T_Sinc, T_Sinc_URRR, 374.3, hit, 2, 0
696, 5, T_Sinc, T_Sinc_URRR, 317.8, hit, 2, 0
697, 5, T_Sinc, T_Sinc_DGLG, 273.2, hit, 1, 0
698, 5, T_Sinc, T_Sinc_DGLG, 252.6, hit, 1, 0
699, 5, T_Sinc, T_Sinc_DGLG, 360.1, hit, 1, 0
700, 5, T_Sinc, T_Sinc_URRR, 335.5, hit, 2, 0
701, 5, T_Sinc, T_Sinc_URRR, 315.0, hit, 2, 0
702, 5, T_Sinc, T_Sinc_DGLG, 270.4, hit, 1, 0
703, 5, T_Sinc, T_Sinc_DGLG, 297.9, hit, 1, 0
704, 5, T_Sinc, T_Sinc_DGLG, 365.3, hit, 1, 0
705, 5, T_Sinc, T_Sinc_URRR, 312.8, hit, 2, 0
706, 5, T_Sinc, T_Sinc_URRR, 292.1, hit, 2, 0
707, 5, T_Scon, T_Scon_DRRR, 363.6, incorrect, 1, 1
708, 5, T_Sinc, T_Sinc_DGLG, 283.0, hit, 1, 0
709, 5, T_Sinc, T_Sinc_URRR, 382.5, hit, 2, 0
710, 5, T_Sinc, T_Sinc_DGLG, 297.9, hit, 1, 0
711, 5, T_Scon, T_Scon_DRRR, 405.4, hit, 2, 0
712, 5, T_Sinc, T_Sinc_URRR, 296.8, hit, 2, 0
713, 5, T_Sinc, T_Sinc_URRR, 372.2, hit, 2, 0
714, 5, T_Sinc, T_Sinc_DGLG, 343.7, hit, 1, 0
715, 5, T_Sinc, T_Sinc_URRR, 339.1, hit, 2, 0
716, 5, T_Sinc, T_Sinc_URRR, 438.6, hit, 2, 0
717, 5, T_Sinc, T_Sinc_URRR, 362.0, hit, 2, 0
718, 5, T_Sinc, T_Sinc_URRR, 313.5, hit, 2, 0
719, 5, T_Sinc, T_Sinc_DGLG, 248.9, hit, 1, 0
720, 5, T_Scon, T_Scon_UGLG, 316.2, incorrect, 2, 1
721, 6, T_Sinc, T_Sinc_URRR, 418.1, hit, 2, 0
722, 6, T_Scon, T_Scon_DRRR, 317.5, hit, 2, 0
723, 6, T_Sinc, T_Sinc_DGLG, 472.9, hit, 1, 0
724, 6, T_Sinc, T_Sinc_DGLG, 316.3, hit, 1, 0
725, 6, T_Sinc, T_Sinc_DGLG, 335.8, hit, 1, 0
726, 6, T_Sinc, T_Sinc_URRR, 223.3, hit, 2, 0
727, 6, T_Scon, T_Scon_UGLG, 354.6, hit, 1, 0
728, 6, T_Sinc, T_Sinc_URRR, 398.1, hit, 2, 0
729, 6, T_Scon, T_Scon_UGLG, 353.5, hit, 1, 0
730, 6, T_Sinc, T_Sinc_URRR, 609.0, hit, 2, 0
731, 6, T_Scon, T_Scon_DRRR, 612.4, hit, 2, 0
732, 6, T_Sinc, T_Sinc_DGLG, 367.9, hit, 1, 0
733, 6, T_Sinc, T_Sinc_URRR, 355.2, hit, 2, 0
734, 6, T_Sinc, T_Sinc_URRR, 550.7, hit, 2, 0
735, 6, T_Sinc, T_Sinc_DGLG, 470.1, hit, 1, 0
736, 6, T_Scon, T_Scon_DRRR, 525.6, hit, 2, 0
737, 6, T_Sinc, T_Sinc_URRR, 545.0, hit, 2, 0
738, 6, T_Scon, T_Scon_UGLG, 656.5, hit, 1, 0
739, 6, T_Sinc, T_Sinc_URRR, 359.9, hit, 2, 0
740, 6, T_Sinc, T_Sinc_DGLG, 363.4, hit, 1, 0
741, 6, T_Sinc, T_Sinc_URRR, 326.8, hit, 2, 0
742, 6, T_Scon, T_Scon_DRRR, 338.2, incorrect, 1, 1
743, 6, T_Sinc, T_Sinc_URRR, 517.7, hit, 2, 0
744, 6, T_Sinc, T_Sinc_DGLG, 277.1, hit, 1, 0
745, 6, T_Sinc, T_Sinc_DGLG, 388.5, hit, 1, 0
746, 6, T_Scon, T_Scon_UGLG, 428.0, hit, 1, 0
747, 6, T_Sinc, T_Sinc_URRR, 495.5, hit, 2, 0
748, 6, T_Sinc, T_Sinc_URRR, 410.9, hit, 2, 0
749, 6, T_Sinc, T_Sinc_DGLG, 522.3, hit, 1, 0
750, 6, T_Scon, T_Scon_UGLG, 293.7, hit, 1, 0
751, 6, T_Sinc, T_Sinc_DGLG, 361.2, hit, 1, 0
752, 6, T_Scon, T_Scon_UGLG, 368.6, hit, 1, 0
753, 6, T_Sinc, T_Sinc_DGLG, 584.1, hit, 1, 0
754, 6, T_Sinc, T_Sinc_DGLG, 307.5, hit, 1, 0
755, 6, T_Sinc, T_Sinc_URRR, 498.9, hit, 2, 0
756, 6, T_Sinc, T_Sinc_DGLG, 526.4, hit, 1, 0
757, 6, T_Sinc, T_Sinc_URRR, 593.6, hit, 2, 0
758, 6, T_Sinc, T_Sinc_DGLG, 333.0, hit, 1, 0
759, 6, T_Sinc, T_Sinc_DGLG, 336.5, hit, 1, 0
760, 6, T_Sinc, T_Sinc_DGLG, 292.0, hit, 1, 0
761, 6, T_Sinc, T_Sinc_DGLG, 231.4, hit, 1, 0
762, 6, T_Sinc, T_Sinc_URRR, 326.7, hit, 2, 0
763, 6, T_Sinc, T_Sinc_DGLG, 326.2, hit, 1, 0
764, 6, T_Sinc, T_Sinc_URRR, 325.6, hit, 2, 0
765, 6, T_Sinc, T_Sinc_URRR, 409.1, hit, 2, 0
766, 6, T_Sinc, T_Sinc_URRR, 272.5, hit, 2, 0
767, 6, T_Sinc, T_Sinc_URRR, 260.0, hit, 2, 0
768, 6, T_Scon, T_Scon_DRRR, 359.4, incorrect, 1, 1
769, 6, T_Sinc, T_Sinc_URRR, 366.9, hit, 2, 0
770, 6, T_Sinc, T_Sinc_URRR, 418.3, hit, 2, 0
771, 6, T_Sinc, T_Sinc_URRR, 309.7, hit, 2, 0
772, 6, T_Sinc, T_Sinc_DGLG, 401.1, hit, 1, 0
773, 6, T_Sinc, T_Sinc_URRR, 416.6, hit, 2, 0
774, 6, T_Sinc, T_Sinc_DGLG, 716.0, hit, 1, 0
775, 6, T_Sinc, T_Sinc_URRR, 335.5, hit, 2, 0
776, 6, T_Sinc, T_Sinc_DGLG, 370.9, hit, 1, 0
777, 6, T_Scon, T_Scon_DRRR, 406.4, incorrect, 1, 1
778, 6, T_Sinc, T_Sinc_URRR, 353.9, hit, 2, 0
779, 6, T_Sinc, T_Sinc_URRR, 389.3, hit, 2, 0
780, 6, T_Sinc, T_Sinc_URRR, 320.7, hit, 2, 0
781, 6, T_Sinc, T_Sinc_DGLG, 556.1, hit, 1, 0
782, 6, T_Sinc, T_Sinc_URRR, 391.6, hit, 2, 0
783, 6, T_Scon, T_Scon_DRRR, 435.0, hit, 2, 0
784, 6, T_Sinc, T_Sinc_URRR, 534.5, hit, 2, 0
785, 6, T_Sinc, T_Sinc_URRR, 357.8, hit, 2, 0
786, 6, T_Sinc, T_Sinc_URRR, 349.3, hit, 2, 0
787, 6, T_Sinc, T_Sinc_DGLG, 392.7, hit, 1, 0
788, 6, T_Sinc, T_Sinc_URRR, 504.2, hit, 2, 0
789, 6, T_Scon, T_Scon_UGLG, 759.6, hit, 1, 2
790, 6, T_Sinc, T_Sinc_DGLG, 347.1, hit, 1, 0
791, 6, T_Scon, T_Scon_UGLG, 246.5, hit, 1, 0
792, 6, T_Sinc, T_Sinc_DGLG, 225.9, hit, 1, 0
793, 6, T_Sinc, T_Sinc_DGLG, 785.1, hit, 1, 0
794, 6, T_Sinc, T_Sinc_URRR, 284.5, hit, 2, 0
795, 6, T_Scon, T_Scon_DRRR, 324.0, hit, 2, 0
796, 6, T_Scon, T_Scon_UGLG, 303.4, hit, 1, 0
797, 6, T_Sinc, T_Sinc_DGLG, 258.9, hit, 1, 0
798, 6, T_Sinc, T_Sinc_URRR, 354.3, hit, 2, 0
799, 6, T_Sinc, T_Sinc_DGLG, 393.8, hit, 1, 0
800, 6, T_Scon, T_Scon_DRRR, 333.3, hit, 2, 0
801, 6, T_Sinc, T_Sinc_URRR, 220.6, hit, 2, 0
802, 6, T_Sinc, T_Sinc_DGLG, 344.1, hit, 1, 0
803, 6, T_Sinc, T_Sinc_URRR, 523.5, hit, 2, 0
804, 6, T_Sinc, T_Sinc_URRR, 319.0, hit, 2, 0
805, 6, T_Sinc, T_Sinc_DGLG, 282.4, incorrect, 2, 1
806, 6, T_Scon, T_Scon_DRRR, 425.9, hit, 2, 0
807, 6, T_Scon, T_Scon_UGLG, 389.3, hit, 1, 0
808, 6, T_Sinc, T_Sinc_DGLG, 264.7, hit, 1, 0
809, 6, T_Sinc, T_Sinc_URRR, 428.1, hit, 2, 0
810, 6, T_Scon, T_Scon_UGLG, 287.6, hit, 1, 0
811, 6, T_Sinc, T_Sinc_URRR, 619.0, hit, 2, 0
812, 6, T_Scon, T_Scon_DRRR, 414.5, hit, 2, 0
813, 6, T_Sinc, T_Sinc_URRR, 293.9, hit, 2, 0
814, 6, T_Sinc, T_Sinc_URRR, 345.4, hit, 2, 0
815, 6, T_Sinc, T_Sinc_DGLG, 316.8, hit, 1, 0
816, 6, T_Scon, T_Scon_DRRR, 308.3, incorrect, 1, 1
817, 6, T_Scon, T_Scon_DRRR, 447.7, hit, 2, 0
818, 6, T_Sinc, T_Sinc_DGLG, 315.1, hit, 1, 0
819, 6, T_Sinc, T_Sinc_DGLG, 294.6, hit, 1, 0
820, 6, T_Sinc, T_Sinc_DGLG, 270.0, hit, 1, 0
821, 6, T_Sinc, T_Sinc_URRR, 345.5, hit, 2, 0
822, 6, T_Sinc, T_Sinc_DGLG, 412.9, hit, 1, 0
823, 6, T_Sinc, T_Sinc_URRR, 312.4, hit, 2, 0
824, 6, T_Sinc, T_Sinc_DGLG, 411.8, hit, 1, 0
825, 6, T_Sinc, T_Sinc_URRR, 295.2, hit, 2, 0
826, 6, T_Scon, T_Scon_UGLG, 870.6, hit, 1, 2
827, 6, T_Sinc, T_Sinc_DGLG, 690.1, hit, 1, 0
828, 6, T_Scon, T_Scon_DRRR, 493.5, hit, 2, 0
829, 6, T_Sinc, T_Sinc_DGLG, 596.8, hit, 1, 0
830, 6, T_Scon, T_Scon_DRRR, 444.2, hit, 2, 0
831, 6, T_Sinc, T_Sinc_URRR, 431.5, hit, 2, 0
832, 6, T_Scon, T_Scon_DRRR, 335.0, hit, 2, 0
833, 6, T_Sinc, T_Sinc_DGLG, 386.4, hit, 1, 0
834, 6, T_Sinc, T_Sinc_DGLG, 289.9, hit, 1, 0
835, 6, T_Sinc, T_Sinc_DGLG, 353.4, hit, 1, 0
836, 6, T_Sinc, T_Sinc_DGLG, 256.8, hit, 1, 0
837, 6, T_Sinc, T_Sinc_URRR, 392.2, hit, 2, 0
838, 6, T_Scon, T_Scon_UGLG, 487.7, hit, 1, 0
839, 6, T_Sinc, T_Sinc_DGLG, 291.2, hit, 1, 0
840, 6, T_Sinc, T_Sinc_DGLG, 334.5, hit, 1, 0
841, 6, T_Sinc, T_Sinc_DGLG, 290.0, hit, 1, 0
842, 6, T_Sinc, T_Sinc_URRR, 517.4, hit, 2, 0
843, 6, T_Sinc, T_Sinc_URRR, 296.9, hit, 2, 0
844, 6, T_Sinc, T_Sinc_DGLG, 380.3, hit, 1, 0
845, 6, T_Sinc, T_Sinc_URRR, 539.8, hit, 2, 0
846, 6, T_Scon, T_Scon_DRRR, 387.2, hit, 2, 0
847, 6, T_Sinc, T_Sinc_DGLG, 390.7, hit, 1, 0
848, 6, T_Scon, T_Scon_UGLG, 282.1, hit, 1, 0
849, 6, T_Sinc, T_Sinc_DGLG, 317.5, hit, 1, 0
850, 6, T_Sinc, T_Sinc_URRR, 448.9, incorrect, 1, 1
851, 6, T_Sinc, T_Sinc_DGLG, 304.4, hit, 1, 0
852, 6, T_Scon, T_Scon_UGLG, 371.8, hit, 1, 0
853, 6, T_Scon, T_Scon_UGLG, 311.3, hit, 1, 0
854, 6, T_Sinc, T_Sinc_URRR, 490.7, hit, 2, 0
855, 6, T_Sinc, T_Sinc_DGLG, 390.1, hit, 1, 0
856, 6, T_Sinc, T_Sinc_URRR, 789.5, hit, 2, 2
857, 6, T_Sinc, T_Sinc_URRR, 313.0, hit, 2, 0
858, 6, T_Sinc, T_Sinc_URRR, 328.4, hit, 2, 0
859, 6, T_Sinc, T_Sinc_DGLG, 299.9, hit, 1, 0
860, 6, T_Scon, T_Scon_DRRR, 375.4, incorrect, 1, 1
861, 6, T_Scon, T_Scon_UGLG, 262.7, hit, 1, 0
862, 6, T_Sinc, T_Sinc_DGLG, 554.2, hit, 1, 0
863, 6, T_Sinc, T_Sinc_DGLG, 305.7, hit, 1, 0
864, 6, T_Scon, T_Scon_UGLG, 397.1, hit, 1, 0
865, 7, T_Scon, T_Scon_UGLG, 628.2, hit, 1, 0
866, 7, T_Scon, T_Scon_DRRR, 299.7, hit, 2, 0
867, 7, T_Scon, T_Scon_DRRR, 395.1, hit, 2, 0
868, 7, T_Scon, T_Scon_UGLG, 366.6, hit, 1, 0
869, 7, T_Scon, T_Scon_DRRR, 354.0, hit, 2, 0
870, 7, T_Scon, T_Scon_UGLG, 361.4, hit, 1, 0
871, 7, T_Scon, T_Scon_DRRR, 952.8, hit, 2, 2
872, 7, T_Sinc, T_Sinc_URRR, 356.3, hit, 2, 0
873, 7, T_Scon, T_Scon_DRRR, 267.7, hit, 2, 0
874, 7, T_Scon, T_Scon_UGLG, 559.2, hit, 1, 0
875, 7, T_Scon, T_Scon_UGLG, 342.6, hit, 1, 0
876, 7, T_Scon, T_Scon_UGLG, 394.0, incorrect, 2, 1
877, 7, T_Scon, T_Scon_UGLG, 301.5, hit, 1, 0
878, 7, T_Scon, T_Scon_DRRR, 440.9, hit, 2, 0
879, 7, T_Scon, T_Scon_UGLG, 444.4, hit, 1, 0
880, 7, T_Scon, T_Scon_DRRR, 603.8, hit, 2, 0
881, 7, T_Sinc, T_Sinc_DGLG, 751.3, hit, 1, 0
882, 7, T_Sinc, T_Sinc_URRR, 622.7, hit, 2, 0
883, 7, T_Scon, T_Scon_DRRR, 650.2, hit, 2, 0
884, 7, T_Scon, T_Scon_DRRR, 477.5, hit, 2, 0
885, 7, T_Scon, T_Scon_DRRR, 373.0, hit, 2, 0
886, 7, T_Scon, T_Scon_UGLG, 464.5, hit, 1, 0
887, 7, T_Scon, T_Scon_DRRR, 571.9, hit, 2, 0
888, 7, T_Scon, T_Scon_UGLG, 655.3, hit, 1, 0
889, 7, T_Scon, T_Scon_UGLG, 738.8, hit, 1, 2
890, 7, T_Scon, T_Scon_DRRR, 398.2, hit, 2, 0
891, 7, T_Scon, T_Scon_UGLG, 521.6, hit, 1, 0
892, 7, T_Scon, T_Scon_DRRR, 605.1, hit, 2, 0
893, 7, T_Sinc, T_Sinc_DGLG, 576.5, incorrect, 2, 1
894, 7, T_Scon, T_Scon_UGLG, 492.0, hit, 1, 0
895, 7, T_Sinc, T_Sinc_DGLG, 371.4, incorrect, 2, 1
896, 7, T_Sinc, T_Sinc_URRR, 554.8, hit, 2, 0
897, 7, T_Scon, T_Scon_UGLG, 526.3, hit, 1, 0
898, 7, T_Scon, T_Scon_UGLG, 321.7, hit, 1, 0
899, 7, T_Scon, T_Scon_DRRR, 529.1, hit, 2, 0
900, 7, T_Scon, T_Scon_UGLG, 508.6, hit, 1, 0
901, 7, T_Scon, T_Scon_DRRR, 899.8, hit, 2, 2
902, 7, T_Scon, T_Scon_UGLG, 327.2, hit, 1, 0
903, 7, T_Scon, T_Scon_DRRR, 326.7, hit, 2, 0
904, 7, T_Scon, T_Scon_UGLG, 394.1, hit, 1, 0
905, 7, T_Scon, T_Scon_UGLG, 373.5, hit, 1, 0
906, 7, T_Sinc, T_Sinc_URRR, 480.9, hit, 2, 0
907, 7, T_Scon, T_Scon_UGLG, 428.4, hit, 1, 0
908, 7, T_Scon, T_Scon_UGLG, 335.8, hit, 1, 0
909, 7, T_Sinc, T_Sinc_URRR, 363.3, incorrect, 1, 1
910, 7, T_Sinc, T_Sinc_DGLG, 646.7, incorrect, 2, 1
911, 7, T_Scon, T_Scon_DRRR, 618.1, hit, 2, 0
912, 7, T_Scon, T_Scon_DRRR, 437.6, hit, 2, 0
913, 7, T_Scon, T_Scon_DRRR, 361.0, hit, 2, 0
914, 7, T_Scon, T_Scon_DRRR, 392.5, hit, 2, 0
915, 7, T_Scon, T_Scon_UGLG, 327.9, hit, 1, 0
916, 7, T_Scon, T_Scon_UGLG, 299.4, hit, 1, 0
917, 7, T_Scon, T_Scon_DRRR, 538.8, hit, 2, 0
918, 7, T_Sinc, T_Sinc_DGLG, 430.3, hit, 1, 0
919, 7, T_Scon, T_Scon_UGLG, 305.6, hit, 1, 0
920, 7, T_Sinc, T_Sinc_DGLG, 301.1, hit, 1, 0
921, 7, T_Scon, T_Scon_DRRR, 424.5, hit, 2, 0
922, 7, T_Scon, T_Scon_DRRR, 364.0, hit, 2, 0
923, 7, T_Scon, T_Scon_DRRR, 363.4, hit, 2, 0
924, 7, T_Scon, T_Scon_DRRR, 338.9, hit, 2, 0
925, 7, T_Scon, T_Scon_DRRR, 314.4, hit, 2, 0
926, 7, T_Scon, T_Scon_DRRR, 289.7, hit, 2, 0
927, 7, T_Scon, T_Scon_UGLG, 461.1, hit, 1, 0
928, 7, T_Sinc, T_Sinc_DGLG, 556.6, hit, 1, 0
929, 7, T_Sinc, T_Sinc_URRR, 520.1, hit, 2, 0
930, 7, T_Sinc, T_Sinc_URRR, 299.5, hit, 2, 0
931, 7, T_Sinc, T_Sinc_DGLG, 415.0, hit, 1, 0
932, 7, T_Sinc, T_Sinc_URRR, 402.4, hit, 2, 0
933, 7, T_Scon, T_Scon_UGLG, 513.9, hit, 1, 0
934, 7, T_Scon, T_Scon_UGLG, 529.2, hit, 1, 0
935, 7, T_Scon, T_Scon_DRRR, 604.7, hit, 2, 0
936, 7, T_Sinc, T_Sinc_URRR, 344.1, hit, 2, 0
937, 7, T_Scon, T_Scon_UGLG, 719.4, hit, 1, 0
938, 7, T_Scon, T_Scon_UGLG, 326.8, hit, 1, 0
939, 7, T_Scon, T_Scon_DRRR, 414.2, hit, 2, 0
940, 7, T_Scon, T_Scon_DRRR, 305.7, hit, 2, 0
941, 7, T_Sinc, T_Sinc_URRR, 345.0, hit, 2, 0
942, 7, T_Scon, T_Scon_UGLG, 324.5, hit, 1, 0
943, 7, T_Scon, T_Scon_UGLG, 299.9, hit, 1, 0
944, 7, T_Scon, T_Scon_UGLG, 291.4, hit, 1, 0
945, 7, T_Sinc, T_Sinc_DGLG, 322.8, hit, 1, 0
946, 7, T_Sinc, T_Sinc_URRR, 638.3, hit, 2, 0
947, 7, T_Scon, T_Scon_DRRR, 545.7, hit, 2, 0
948, 7, T_Scon, T_Scon_DRRR, 549.1, hit, 2, 0
949, 7, T_Scon, T_Scon_UGLG, 428.6, hit, 1, 0
950, 7, T_Sinc, T_Sinc_DGLG, 452.0, incorrect, 2, 1
951, 7, T_Scon, T_Scon_DRRR, 415.5, hit, 2, 0
952, 7, T_Scon, T_Scon_DRRR, 346.9, hit, 2, 0
953, 7, T_Scon, T_Scon_DRRR, 758.4, hit, 2, 2
954, 7, T_Sinc, T_Sinc_DGLG, 685.8, hit, 1, 0
955, 7, T_Sinc, T_Sinc_URRR, 697.2, hit, 2, 0
956, 7, T_Scon, T_Scon_DRRR, 828.7, hit, 2, 2
957, 7, T_Scon, T_Scon_UGLG, 456.1, hit, 1, 0
958, 7, T_Scon, T_Scon_UGLG, 255.5, hit, 1, 0
959, 7, T_Scon, T_Scon_UGLG, 306.9, hit, 1, 0
960, 7, T_Scon, T_Scon_DRRR, 386.4, hit, 2, 0
961, 7, T_Scon, T_Scon_UGLG, 373.9, hit, 1, 0
962, 7, T_Scon, T_Scon_DRRR, 401.3, hit, 2, 0
963, 7, T_Scon, T_Scon_UGLG, 336.8, hit, 1, 0
964, 7, T_Scon, T_Scon_DRRR, 432.2, hit, 2, 0
965, 7, T_Sinc, T_Sinc_URRR, 447.7, hit, 2, 0
966, 7, T_Scon, T_Scon_UGLG, 515.0, hit, 1, 0
967, 7, T_Scon, T_Scon_UGLG, 334.5, hit, 1, 0
968, 7, T_Scon, T_Scon_DRRR, 466.0, hit, 2, 0
969, 7, T_Scon, T_Scon_DRRR, 377.4, hit, 2, 0
970, 7, T_Scon, T_Scon_DRRR, 404.9, hit, 2, 0
971, 7, T_Scon, T_Scon_UGLG, 280.3, hit, 1, 0
972, 7, T_Scon, T_Scon_UGLG, 235.7, hit, 1, 0
973, 7, T_Scon, T_Scon_DRRR, 739.0, incorrect, 1, 1
974, 7, T_Scon, T_Scon_DRRR, 550.4, hit, 2, 0
975, 7, T_Scon, T_Scon_DRRR, 289.7, hit, 2, 0
976, 7, T_Scon, T_Scon_UGLG, 285.2, hit, 1, 0
977, 7, T_Scon, T_Scon_UGLG, 344.6, hit, 1, 0
978, 7, T_Scon, T_Scon_UGLG, 264.1, hit, 1, 0
979, 7, T_Sinc, T_Sinc_DGLG, 539.6, hit, 1, 0
980, 7, T_Sinc, T_Sinc_DGLG, 495.0, hit, 1, 0
981, 7, T_Sinc, T_Sinc_URRR, 326.5, hit, 2, 0
982, 7, T_Sinc, T_Sinc_DGLG, 429.9, hit, 1, 0
983, 7, T_Scon, T_Scon_DRRR, 409.3, hit, 2, 0
984, 7, T_Scon, T_Scon_UGLG, 412.7, hit, 1, 0
985, 7, T_Scon, T_Scon_UGLG, 236.2, hit, 1, 0
986, 7, T_Sinc, T_Sinc_DGLG, 423.6, hit, 1, 0
987, 7, T_Sinc, T_Sinc_DGLG, 371.1, hit, 1, 0
988, 7, T_Scon, T_Scon_UGLG, 382.6, hit, 1, 0
989, 7, T_Sinc, T_Sinc_URRR, 665.9, hit, 2, 0
990, 7, T_Scon, T_Scon_UGLG, 473.3, hit, 1, 0
991, 7, T_Sinc, T_Sinc_DGLG, 520.8, hit, 1, 0
992, 7, T_Scon, T_Scon_UGLG, 364.3, hit, 1, 0
993, 7, T_Sinc, T_Sinc_URRR, 615.7, hit, 2, 0
994, 7, T_Scon, T_Scon_DRRR, 579.2, hit, 2, 0
995, 7, T_Scon, T_Scon_DRRR, 358.5, hit, 2, 0
996, 7, T_Sinc, T_Sinc_DGLG, 594.0, hit, 1, 0
997, 7, T_Scon, T_Scon_DRRR, 441.4, hit, 2, 0
998, 7, T_Scon, T_Scon_DRRR, 472.9, hit, 2, 0
999, 7, T_Scon, T_Scon_DRRR, 396.3, hit, 2, 0
1000, 7, T_Scon, T_Scon_DRRR, 415.8, hit, 2, 0
1001, 7, T_Scon, T_Scon_DRRR, 411.1, hit, 2, 0
1002, 7, T_Scon, T_Scon_UGLG, 466.6, hit, 1, 0
1003, 7, T_Scon, T_Scon_DRRR, 470.1, hit, 2, 0
1004, 7, T_Scon, T_Scon_UGLG, 353.5, hit, 1, 0
1005, 7, T_Scon, T_Scon_UGLG, 341.0, hit, 1, 0
1006, 7, T_Sinc, T_Sinc_URRR, 608.4, hit, 2, 0
1007, 7, T_Sinc, T_Sinc_URRR, 291.9, hit, 2, 0
1008, 7, T_Scon, T_Scon_UGLG, 507.2, hit, 1, 0
1009, 8, T_Scon, T_Scon_DRRR, 939.1, hit, 2, 2
1010, 8, T_Scon, T_Scon_DRRR, 326.5, hit, 2, 0
1011, 8, T_Scon, T_Scon_UGLG, 373.9, hit, 1, 0
1012, 8, T_Scon, T_Scon_DRRR, 345.4, hit, 2, 0
1013, 8, T_Sinc, T_Sinc_DGLG, 328.8, incorrect, 2, 1
1014, 8, T_Scon, T_Scon_DRRR, 324.3, hit, 2, 0
1015, 8, T_Scon, T_Scon_UGLG, 443.7, hit, 1, 0
1016, 8, T_Scon, T_Scon_UGLG, 371.2, hit, 1, 0
1017, 8, T_Scon, T_Scon_UGLG, 298.7, hit, 1, 0
1018, 8, T_Scon, T_Scon_UGLG, 770.0, hit, 1, 2
1019, 8, T_Sinc, T_Sinc_DGLG, 441.4, hit, 1, 0
1020, 8, T_Scon, T_Scon_UGLG, 684.9, hit, 1, 0
1021, 8, T_Scon, T_Scon_UGLG, 352.3, hit, 1, 0
1022, 8, T_Scon, T_Scon_UGLG, 403.8, hit, 1, 0
1023, 8, T_Sinc, T_Sinc_URRR, 479.3, hit, 2, 0
1024, 8, T_Scon, T_Scon_UGLG, 394.7, hit, 1, 0
1025, 8, T_Scon, T_Scon_UGLG, 350.1, hit, 1, 0
1026, 8, T_Scon, T_Scon_DRRR, 433.5, hit, 2, 0
1027, 8, T_Sinc, T_Sinc_URRR, 221.0, hit, 2, 0
1028, 8, T_Scon, T_Scon_DRRR, 248.4, hit, 2, 0
1029, 8, T_Scon, T_Scon_DRRR, 355.9, hit, 2, 0
1030, 8, T_Scon, T_Scon_UGLG, 419.3, hit, 1, 0
1031, 8, T_Scon, T_Scon_DRRR, 362.7, hit, 2, 0
1032, 8, T_Scon, T_Scon_UGLG, 330.1, hit, 1, 0
1033, 8, T_Scon, T_Scon_DRRR, 325.6, hit, 2, 0
1034, 8, T_Scon, T_Scon_UGLG, 309.0, hit, 1, 0
1035, 8, T_Sinc, T_Sinc_URRR, 320.5, incorrect, 1, 1
1036, 8, T_Sinc, T_Sinc_URRR, 451.9, hit, 2, 0
1037, 8, T_Scon, T_Scon_DRRR, 343.4, hit, 2, 0
1038, 8, T_Sinc, T_Sinc_DGLG, 438.9, hit, 1, 0
1039, 8, T_Scon, T_Scon_UGLG, 346.2, hit, 1, 0
1040, 8, T_Scon, T_Scon_UGLG, 329.7, hit, 1, 0
1041, 8, T_Scon, T_Scon_DRRR, 497.1, hit, 2, 0
1042, 8, T_Scon, T_Scon_UGLG, 444.5, hit, 1, 0
1043, 8, T_Scon, T_Scon_DRRR, 324.0, hit, 2, 0
1044, 8, T_Sinc, T_Sinc_URRR, 307.5, hit, 2, 0
1045, 8, T_Sinc, T_Sinc_URRR, 754.7, hit, 2, 0
1046, 8, T_Scon, T_Scon_DRRR, 310.0, hit, 2, 0
1047, 8, T_Scon, T_Scon_DRRR, 313.5, hit, 2, 0
1048, 8, T_Scon, T_Scon_DRRR, 332.9, hit, 2, 0
1049, 8, T_Scon, T_Scon_DRRR, 288.4, hit, 2, 0
1050, 8, T_Sinc, T_Sinc_DGLG, 459.8, hit, 1, 0
1051, 8, T_Scon, T_Scon_UGLG, 283.3, hit, 1, 0
1052, 8, T_Scon, T_Scon_DRRR, 430.8, hit, 2, 0
1053, 8, T_Scon, T_Scon_DRRR, 330.1, hit, 2, 0
1054, 8, T_Scon, T_Scon_UGLG, 365.5, hit, 1, 0
1055, 8, T_Scon, T_Scon_UGLG, 269.0, hit, 1, 0
1056, 8, T_Scon, T_Scon_DRRR, 616.4, hit, 2, 0
1057, 8, T_Sinc, T_Sinc_URRR, 631.9, hit, 2, 0
1058, 8, T_Scon, T_Scon_UGLG, 555.3, hit, 1, 0
1059, 8, T_Scon, T_Scon_UGLG, 358.7, hit, 1, 0
1060, 8, T_Scon, T_Scon_DRRR, 530.2, hit, 2, 0
1061, 8, T_Scon, T_Scon_DRRR, 381.6, hit, 2, 0
1062, 8, T_Scon, T_Scon_DRRR, 653.0, hit, 2, 0
1063, 8, T_Scon, T_Scon_UGLG, 368.5, hit, 1, 0
1064, 8, T_Scon, T_Scon_UGLG, 328.0, hit, 1, 0
1065, 8, T_Scon, T_Scon_UGLG, 323.4, hit, 1, 0
1066, 8, T_Sinc, T_Sinc_DGLG, 566.9, hit, 1, 0
1067, 8, T_Scon, T_Scon_DRRR, 630.2, incorrect, 1, 1
1068, 8, T_Sinc, T_Sinc_DGLG, 449.7, hit, 1, 0
1069, 8, T_Sinc, T_Sinc_URRR, 653.1, hit, 2, 0
1070, 8, T_Scon, T_Scon_UGLG, 436.6, hit, 1, 0
1071, 8, T_Scon, T_Scon_UGLG, 296.0, hit, 1, 0
1072, 8, T_Sinc, T_Sinc_DGLG, 335.5, hit, 1, 0
1073, 8, T_Scon, T_Scon_DRRR, 554.9, hit, 2, 0
1074, 8, T_Scon, T_Scon_DRRR, 478.4, hit, 2, 0
1075, 8, T_Scon, T_Scon_DRRR, 377.7, hit, 2, 0
1076, 8, T_Sinc, T_Sinc_DGLG, 613.2, hit, 1, 0
1077, 8, T_Scon, T_Scon_UGLG, 416.6, hit, 1, 0
1078, 8, T_Sinc, T_Sinc_URRR, 608.1, hit, 2, 0
1079, 8, T_Scon, T_Scon_DRRR, 411.6, hit, 2, 0
1080, 8, T_Sinc, T_Sinc_DGLG, 551.0, hit, 1, 0
1081, 8, T_Scon, T_Scon_UGLG, 510.1, hit, 1, 0
1082, 8, T_Scon, T_Scon_DRRR, 441.6, hit, 2, 0
1083, 8, T_Scon, T_Scon_UGLG, 309.0, hit, 1, 0
1084, 8, T_Sinc, T_Sinc_URRR, 728.4, hit, 2, 0
1085, 8, T_Scon, T_Scon_UGLG, 839.9, hit, 1, 2
1086, 8, T_Sinc, T_Sinc_DGLG, 495.4, hit, 1, 0
1087, 8, T_Scon, T_Scon_UGLG, 418.8, hit, 1, 0
1088, 8, T_Scon, T_Scon_UGLG, 310.3, hit, 1, 0
1089, 8, T_Sinc, T_Sinc_DGLG, 409.7, hit, 1, 0
1090, 8, T_Scon, T_Scon_DRRR, 493.1, hit, 2, 0
1091, 8, T_Scon, T_Scon_DRRR, 352.5, hit, 2, 0
1092, 8, T_Scon, T_Scon_DRRR, 352.0, hit, 2, 0
1093, 8, T_Scon, T_Scon_DRRR, 323.4, hit, 2, 0
1094, 8, T_Scon, T_Scon_UGLG, 342.9, hit, 1, 0
1095, 8, T_Scon, T_Scon_DRRR, 486.3, hit, 2, 0
1096, 8, T_Scon, T_Scon_DRRR, 373.8, hit, 2, 0
1097, 8, T_Scon, T_Scon_DRRR, 489.3, hit, 2, 0
1098, 8, T_Scon, T_Scon_UGLG, 356.6, hit, 1, 0
1099, 8, T_Sinc, T_Sinc_URRR, 528.0, hit, 2, 0
1100, 8, T_Scon, T_Scon_DRRR, 363.5, hit, 2, 0
1101, 8, T_Scon, T_Scon_UGLG, 327.0, hit, 1, 0
1102, 8, T_Scon, T_Scon_DRRR, 434.4, hit, 2, 0
1103, 8, T_Scon, T_Scon_DRRR, 445.9, hit, 2, 0
1104, 8, T_Sinc, T_Sinc_URRR, 685.2, hit, 2, 0
1105, 8, T_Sinc, T_Sinc_DGLG, 288.7, hit, 1, 0
1106, 8, T_Scon, T_Scon_DRRR, 416.1, hit, 2, 0
1107, 8, T_Scon, T_Scon_DRRR, 379.6, hit, 2, 0
1108, 8, T_Scon, T_Scon_UGLG, 351.0, hit, 1, 0
1109, 8, T_Sinc, T_Sinc_URRR, 494.5, hit, 2, 0
1110, 8, T_Sinc, T_Sinc_DGLG, 513.9, hit, 1, 0
1111, 8, T_Scon, T_Scon_UGLG, 265.3, hit, 1, 0
1112, 8, T_Scon, T_Scon_UGLG, 356.8, hit, 1, 0
1113, 8, T_Sinc, T_Sinc_URRR, 564.2, hit, 2, 0
1114, 8, T_Scon, T_Scon_UGLG, 959.6, hit, 1, 2
1115, 8, T_Scon, T_Scon_UGLG, 295.1, hit, 1, 0
1116, 8, T_Scon, T_Scon_DRRR, 326.6, hit, 2, 0
1117, 8, T_Scon, T_Scon_UGLG, 413.8, hit, 1, 0
1118, 8, T_Scon, T_Scon_DRRR, 425.1, hit, 2, 0
1119, 8, T_Scon, T_Scon_UGLG, 444.5, hit, 1, 0
1120, 8, T_Sinc, T_Sinc_URRR, 808.0, hit, 2, 2
1121, 8, T_Scon, T_Scon_UGLG, 583.4, hit, 1, 0
1122, 8, T_Scon, T_Scon_DRRR, 482.9, hit, 2, 0
1123, 8, T_Scon, T_Scon_DRRR, 362.4, hit, 2, 0
1124, 8, T_Scon, T_Scon_UGLG, 653.8, hit, 1, 0
1125, 8, T_Sinc, T_Sinc_DGLG, 561.2, hit, 1, 0
1126, 8, T_Scon, T_Scon_DRRR, 644.6, hit, 2, 0
1127, 8, T_Scon, T_Scon_DRRR, 488.1, hit, 2, 0
1128, 8, T_Scon, T_Scon_DRRR, 451.5, hit, 2, 0
1129, 8, T_Scon, T_Scon_UGLG, 555.0, hit, 1, 0
1130, 8, T_Sinc, T_Sinc_DGLG, 550.5, hit, 1, 0
1131, 8, T_Sinc, T_Sinc_URRR, 601.9, hit, 2, 0
1132, 8, T_Scon, T_Scon_DRRR, 549.3, hit, 2, 0
1133, 8, T_Scon, T_Scon_UGLG, 412.7, hit, 1, 0
1134, 8, T_Scon, T_Scon_UGLG, 344.1, hit, 1, 0
1135, 8, T_Sinc, T_Sinc_DGLG, 375.6, incorrect, 2, 1
1136, 8, T_Scon, T_Scon_DRRR, 335.1, hit, 2, 0
1137, 8, T_Scon, T_Scon_DRRR, 1090.5, hit, 2, 2
1138, 8, T_Scon, T_Scon_UGLG, 390.0, hit, 1, 0
1139, 8, T_Scon, T_Scon_DRRR, 381.4, hit, 2, 0
1140, 8, T_Scon, T_Scon_DRRR, 476.8, hit, 2, 0
1141, 8, T_Sinc, T_Sinc_DGLG, 356.2, incorrect, 2, 1
1142, 8, T_Scon, T_Scon_UGLG, 427.7, hit, 1, 0
1143, 8, T_Scon, T_Scon_UGLG, 367.1, hit, 1, 0
1144, 8, T_Scon, T_Scon_DRRR, 346.6, hit, 2, 0
1145, 8, T_Sinc, T_Sinc_URRR, 622.0, hit, 2, 0
1146, 8, T_Sinc, T_Sinc_DGLG, 417.5, hit, 1, 0
1147, 8, T_Scon, T_Scon_UGLG, 364.8, hit, 1, 0
1148, 8, T_Scon, T_Scon_UGLG, 376.3, hit, 1, 0
1149, 8, T_Scon, T_Scon_DRRR, 411.7, hit, 2, 0
1150, 8, T_Scon, T_Scon_UGLG, 623.2, hit, 1, 0
1151, 8, T_Scon, T_Scon_UGLG, 298.7, hit, 1, 0
1152, 8, T_Sinc, T_Sinc_URRR, 886.0, hit, 2, 2
1153, 9, T_Sinc, T_Sinc_DGLG, 506.3, hit, 1, 0
1154, 9, T_Sinc, T_Sinc_URRR, 369.7, hit, 2, 0
1155, 9, T_Scon, T_Scon_UGLG, 333.2, hit, 1, 0
1156, 9, T_Sinc, T_Sinc_URRR, 412.6, hit, 2, 0
1157, 9, T_Scon, T_Scon_UGLG, 296.1, hit, 1, 0
1158, 9, T_Scon, T_Scon_UGLG, 363.4, hit, 1, 0
1159, 9, T_Scon, T_Scon_UGLG, 474.9, hit, 1, 0
1160, 9, T_Scon, T_Scon_UGLG, 358.3, hit, 1, 0
1161, 9, T_Sinc, T_Sinc_DGLG, 589.8, hit, 1, 0
1162, 9, T_Sinc, T_Sinc_URRR, 409.2, hit, 2, 0
1163, 9, T_Sinc, T_Sinc_URRR, 360.6, hit, 2, 0
1164, 9, T_Scon, T_Scon_DRRR, 608.1, hit, 2, 0
1165, 9, T_Scon, T_Scon_UGLG, 403.5, hit, 1, 0
1166, 9, T_Scon, T_Scon_DRRR, 430.9, hit, 2, 0
1167, 9, T_Scon, T_Scon_DRRR, 338.4, hit, 2, 0
1168, 9, T_Sinc, T_Sinc_URRR, 357.9, hit, 2, 0
1169, 9, T_Sinc, T_Sinc_DGLG, 305.2, hit, 1, 0
1170, 9, T_Scon, T_Scon_DRRR, 392.7, hit, 2, 0
1171, 9, T_Scon, T_Scon_DRRR, 340.1, hit, 2, 0
1172, 9, T_Sinc, T_Sinc_URRR, 311.6, incorrect, 1, 1
1173, 9, T_Scon, T_Scon_UGLG, 311.1, hit, 1, 0
1174, 9, T_Scon, T_Scon_DRRR, 406.5, hit, 2, 0
1175, 9, T_Sinc, T_Sinc_URRR, 485.8, hit, 2, 0
1176, 9, T_Scon, T_Scon_DRRR, 385.3, hit, 2, 0
1177, 9, T_Scon, T_Scon_DRRR, 356.7, hit, 2, 0
1178, 9, T_Sinc, T_Sinc_URRR, 560.2, hit, 2, 0
1179, 9, T_Scon, T_Scon_UGLG, 443.6, hit, 1, 0
1180, 9, T_Scon, T_Scon_UGLG, 375.1, hit, 1, 0
1181, 9, T_Scon, T_Scon_DRRR, 382.5, hit, 2, 0
1182, 9, T_Sinc, T_Sinc_DGLG, 325.9, incorrect, 2, 1
1183, 9, T_Scon, T_Scon_UGLG, 377.3, hit, 1, 0
1184, 9, T_Scon, T_Scon_DRRR, 252.8, hit, 2, 0
1185, 9, T_Scon, T_Scon_DRRR, 248.3, hit, 2, 0
1186, 9, T_Scon, T_Scon_DRRR, 291.7, hit, 2, 0
1187, 9, T_Scon, T_Scon_DRRR, 251.2, hit, 2, 0
1188, 9, T_Scon, T_Scon_DRRR, 390.6, hit, 2, 0
1189, 9, T_Scon, T_Scon_DRRR, 569.8, hit, 2, 0
1190, 9, T_Sinc, T_Sinc_URRR, 369.2, hit, 2, 0
1191, 9, T_Scon, T_Scon_UGLG, 488.6, hit, 1, 0
1192, 9, T_Sinc, T_Sinc_DGLG, 296.1, hit, 1, 0
1193, 9, T_Scon, T_Scon_DRRR, 287.5, hit, 2, 0
1194, 9, T_Scon, T_Scon_UGLG, 447.0, hit, 1, 0
1195, 9, T_Sinc, T_Sinc_URRR, 402.4, hit, 2, 0
1196, 9, T_Scon, T_Scon_UGLG, 389.9, hit, 1, 0
1197, 9, T_Sinc, T_Sinc_DGLG, 405.2, hit, 1, 0
1198, 9, T_Scon, T_Scon_DRRR, 432.7, incorrect, 1, 1
1199, 9, T_Scon, T_Scon_UGLG, 588.1, hit, 1, 0
1200, 9, T_Scon, T_Scon_UGLG, 347.6, hit, 1, 0
1201, 9, T_Scon, T_Scon_DRRR, 383.0, hit, 2, 0
1202, 9, T_Scon, T_Scon_DRRR, 290.5, hit, 2, 0
1203, 9, T_Scon, T_Scon_DRRR, 306.0, hit, 2, 0
1204, 9, T_Scon, T_Scon_DRRR, 333.4, hit, 2, 0
1205, 9, T_Scon, T_Scon_DRRR, 320.7, hit, 2, 0
1206, 9, T_Scon, T_Scon_DRRR, 300.2, hit, 2, 0
1207, 9, T_Scon, T_Scon_DRRR, 279.7, hit, 2, 0
1208, 9, T_Scon, T_Scon_DRRR, 371.1, hit, 2, 0
1209, 9, T_Scon, T_Scon_UGLG, 446.6, hit, 1, 0
1210, 9, T_Scon, T_Scon_UGLG, 330.0, hit, 1, 0
1211, 9, T_Sinc, T_Sinc_DGLG, 445.5, hit, 1, 0
1212, 9, T_Scon, T_Scon_DRRR, 500.9, hit, 2, 0
1213, 9, T_Scon, T_Scon_DRRR, 464.4, hit, 2, 0
1214, 9, T_Scon, T_Scon_UGLG, 323.7, hit, 1, 0
1215, 9, T_Scon, T_Scon_DRRR, 343.2, hit, 2, 0
1216, 9, T_Scon, T_Scon_UGLG, 326.6, hit, 1, 0
1217, 9, T_Sinc, T_Sinc_DGLG, 374.1, hit, 1, 0
1218, 9, T_Scon, T_Scon_UGLG, 353.5, hit, 1, 0
1219, 9, T_Scon, T_Scon_UGLG, 289.0, hit, 1, 0
1220, 9, T_Sinc, T_Sinc_URRR, 584.4, hit, 2, 0
1221, 9, T_Scon, T_Scon_UGLG, 491.8, hit, 1, 0
1222, 9, T_Sinc, T_Sinc_URRR, 591.3, hit, 2, 0
1223, 9, T_Scon, T_Scon_DRRR, 450.7, hit, 2, 0
1224, 9, T_Scon, T_Scon_DRRR, 382.2, hit, 2, 0
1225, 9, T_Scon, T_Scon_UGLG, 1097.4, hit, 1, 2
1226, 9, T_Scon, T_Scon_UGLG, 352.8, hit, 1, 0
1227, 9, T_Sinc, T_Sinc_DGLG, 524.2, hit, 1, 0
1228, 9, T_Scon, T_Scon_DRRR, 427.6, hit, 2, 0
1229, 9, T_Scon, T_Scon_DRRR, 287.0, hit, 2, 0
1230, 9, T_Scon, T_Scon_DRRR, 338.5, hit, 2, 0
1231, 9, T_Sinc, T_Sinc_DGLG, 374.0, hit, 1, 0
1232, 9, T_Scon, T_Scon_DRRR, 441.4, hit, 2, 0
1233, 9, T_Scon, T_Scon_DRRR, 308.8, hit, 2, 0
1234, 9, T_Scon, T_Scon_DRRR, 280.4, hit, 2, 0
1235, 9, T_Scon, T_Scon_UGLG, 675.8, hit, 1, 0
1236, 9, T_Sinc, T_Sinc_URRR, 463.2, hit, 2, 0
1237, 9, T_Scon, T_Scon_UGLG, 314.7, hit, 1, 0
1238, 9, T_Scon, T_Scon_UGLG, 326.1, hit, 1, 0
1239, 9, T_Sinc, T_Sinc_DGLG, 369.5, hit, 1, 0
1240, 9, T_Scon, T_Scon_UGLG, 324.9, hit, 1, 0
1241, 9, T_Scon, T_Scon_UGLG, 300.4, hit, 1, 0
1242, 9, T_Scon, T_Scon_UGLG, 303.8, hit, 1, 0
1243, 9, T_Scon, T_Scon_DRRR, 419.3, hit, 2, 0
1244, 9, T_Scon, T_Scon_UGLG, 366.7, hit, 1, 0
1245, 9, T_Scon, T_Scon_DRRR, 278.2, hit, 2, 0
1246, 9, T_Scon, T_Scon_UGLG, 377.5, hit, 1, 0
1247, 9, T_Scon, T_Scon_UGLG, 381.0, hit, 1, 0
1248, 9, T_Scon, T_Scon_UGLG, 232.5, hit, 1, 0
1249, 9, T_Scon, T_Scon_UGLG, 275.9, hit, 1, 0
1250, 9, T_Scon, T_Scon_UGLG, 235.4, hit, 1, 0
1251, 9, T_Sinc, T_Sinc_DGLG, 358.8, hit, 1, 0
1252, 9, T_Sinc, T_Sinc_DGLG, 394.3, hit, 1, 0
1253, 9, T_Scon, T_Scon_DRRR, 325.7, hit, 2, 0
1254, 9, T_Sinc, T_Sinc_URRR, 253.1, hit, 2, 0
1255, 9, T_Scon, T_Scon_UGLG, 364.5, hit, 1, 0
1256, 9, T_Scon, T_Scon_DRRR, 360.0, hit, 2, 0
1257, 9, T_Scon, T_Scon_UGLG, 443.4, hit, 1, 0
1258, 9, T_Scon, T_Scon_UGLG, 342.9, hit, 1, 0
1259, 9, T_Scon, T_Scon_DRRR, 330.3, hit, 2, 0
1260, 9, T_Sinc, T_Sinc_URRR, 293.7, incorrect, 1, 1
1261, 9, T_Scon, T_Scon_DRRR, 604.9, hit, 2, 0
1262, 9, T_Scon, T_Scon_UGLG, 500.3, hit, 1, 0
1263, 9, T_Sinc, T_Sinc_URRR, 459.8, hit, 2, 0
1264, 9, T_Sinc, T_Sinc_DGLG, 359.3, hit, 1, 0
1265, 9, T_Scon, T_Scon_UGLG, 338.7, hit, 1, 0
1266, 9, T_Scon, T_Scon_UGLG, 350.1, hit, 1, 0
1267, 9, T_Scon, T_Scon_DRRR, 513.5, hit, 2, 0
1268, 9, T_Sinc, T_Sinc_URRR, 301.0, hit, 2, 0
1269, 9, T_Scon, T_Scon_DRRR, 384.4, hit, 2, 0
1270, 9, T_Sinc, T_Sinc_URRR, 275.9, hit, 2, 0
1271, 9, T_Scon, T_Scon_DRRR, 343.3, hit, 2, 0
1272, 9, T_Scon, T_Scon_DRRR, 294.7, hit, 2, 0
1273, 9, T_Scon, T_Scon_DRRR, 466.1, hit, 2, 0
1274, 9, T_Scon, T_Scon_DRRR, 321.6, hit, 2, 0
1275, 9, T_Scon, T_Scon_DRRR, 233.0, hit, 2, 0
1276, 9, T_Scon, T_Scon_DRRR, 376.5, hit, 2, 0
1277, 9, T_Scon, T_Scon_UGLG, 355.9, hit, 1, 0
1278, 9, T_Scon, T_Scon_DRRR, 471.3, hit, 2, 0
1279, 9, T_Scon, T_Scon_UGLG, 298.7, hit, 1, 0
1280, 9, T_Scon, T_Scon_UGLG, 218.2, hit, 1, 0
1281, 9, T_Scon, T_Scon_UGLG, 229.7, hit, 1, 0
1282, 9, T_Scon, T_Scon_UGLG, 189.1, hit, 1, 0
1283, 9, T_Scon, T_Scon_UGLG, 296.6, hit, 1, 0
1284, 9, T_Sinc, T_Sinc_DGLG, 348.0, hit, 1, 0
1285, 9, T_Sinc, T_Sinc_DGLG, 339.4, hit, 1, 0
1286, 9, T_Scon, T_Scon_DRRR, 298.8, hit, 2, 0
1287, 9, T_Scon, T_Scon_UGLG, 462.3, hit, 1, 0
1288, 9, T_Scon, T_Scon_DRRR, 301.7, hit, 2, 0
1289, 9, T_Scon, T_Scon_UGLG, 569.2, hit, 1, 0
1290, 9, T_Scon, T_Scon_UGLG, 356.5, hit, 1, 0
1291, 9, T_Sinc, T_Sinc_DGLG, 528.0, hit, 1, 0
1292, 9, T_Scon, T_Scon_DRRR, 903.4, hit, 2, 2
1293, 9, T_Scon, T_Scon_UGLG, 426.9, hit, 1, 0
1294, 9, T_Scon, T_Scon_UGLG, 374.4, hit, 1, 0
1295, 9, T_Scon, T_Scon_UGLG, 313.8, hit, 1, 0
1296, 9, T_Sinc, T_Sinc_DGLG, 265.3, hit, 1, 0
