trial_index, block, condition, full_condition_code, RT, response_type, response_key, error_outlier
1,1, T_Sinc, T_Sinc_DRLR,548.6, hit,1,0
2,1, T_Sinc, T_Sinc_UGRG,527.9, hit,2,0
3,1, T_Scon, T_Scon_DGRG,467.4, hit,2,0
4,1, T_Sinc, T_Sinc_UGRG,442.9, hit,2,0
5,1, T_Sinc, T_Sinc_UGRG,450.3, hit,2,0
6,1, T_Scon, T_Scon_URLR,437.7, hit,1,0
7,1, T_Sinc, T_Sinc_DRLR,433.2, hit,1,0
8,1, T_Sinc, T_Sinc_UGRG,344.6, hit,2,0
9,1, T_Scon, T_Scon_URLR,404, hit,1,0
10,1, T_Sinc, T_Sinc_DRLR,483.5, hit,1,0
11,1, T_Sinc, T_Sinc_DRLR,458.9, hit,1,0
12,1, T_Scon, T_Scon_URLR,378.3, hit,1,0
13,1, T_Sinc, T_Sinc_UGRG,469.8, hit,2,0
14,1, T_Sinc, T_Sinc_UGRG,369.3, hit,2,0
15,1, T_Sinc, T_Sinc_UGRG,400.6, hit,2,0
16,1, T_Sinc, T_Sinc_UGRG,340.1, hit,2,0
17,1, T_Sinc, T_Sinc_UGRG,359.6, hit,2,0
18,1, T_Sinc, T_Sinc_DRLR,319, hit,1,0
19,1, T_Sinc, T_Sinc_DRLR,382.4, hit,1,0
20,1, T_Sinc, T_Sinc_UGRG,517.9, hit,2,0
21,1, T_Sinc, T_Sinc_DRLR,349.3, hit,1,0
22,1, T_Sinc, T_Sinc_UGRG,276.7, hit,2,0
23,1, T_Sinc, T_Sinc_DRLR,432.2, hit,1,0
24,1, T_Sinc, T_Sinc_UGRG,315.7, hit,2,0
25,1, T_Sinc, T_Sinc_DRLR,351, hit,1,0
26,1, T_Scon, T_Scon_URLR,642.5, hit,1,0
27,1, T_Sinc, T_Sinc_UGRG,430, hit,2,0
28,1, T_Sinc, T_Sinc_DRLR,289.4, hit,1,0
29,1, T_Sinc, T_Sinc_UGRG,508.8, hit,2,0
30,1, T_Sinc, T_Sinc_DRLR,352.3, hit,1,0
31,1, T_Sinc, T_Sinc_DRLR,403.7, hit,1,0
32,1, T_Sinc, T_Sinc_UGRG,455.1, hit,2,0
33,1, T_Scon, T_Scon_DGRG,582.6, hit,2,0
34,1, T_Sinc, T_Sinc_DRLR,394, hit,1,0
35,1, T_Sinc, T_Sinc_UGRG,325.4, hit,2,0
36,1, T_Sinc, T_Sinc_UGRG,420.9, hit,2,0
37,1, T_Scon, T_Scon_DGRG,836.1, hit,2,2
38,1, T_Sinc, T_Sinc_DRLR,431.5, hit,1,0
39,1, T_Sinc, T_Sinc_DRLR,406.9, hit,1,0
40,1, T_Sinc, T_Sinc_DRLR,386.4, hit,1,0
41,1, T_Scon, T_Scon_DGRG,317.8, hit,2,0
42,1, T_Sinc, T_Sinc_DRLR,577.2, hit,1,0
43,1, T_Sinc, T_Sinc_UGRG,320.7, hit,2,0
44,1, T_Sinc, T_Sinc_DRLR,288.2, hit,1,0
45,1, T_Scon, T_Scon_URLR,455.5, hit,1,0
46,1, T_Sinc, T_Sinc_UGRG,371, hit,2,0
47,1, T_Sinc, T_Sinc_UGRG,382.5, hit,2,0
48,1, T_Sinc, T_Sinc_UGRG,385.8, hit,2,0
49,1, T_Scon, T_Scon_URLR,449.3, hit,1,0
50,1, T_Sinc, T_Sinc_DRLR,496.8, hit,1,0
51,1, T_Sinc, T_Sinc_UGRG,364.1, hit,2,0
52,1, T_Sinc, T_Sinc_DRLR,487.6, hit,1,0
53,1, T_Sinc, T_Sinc_DRLR,363.1, hit,1,0
54,1, T_Sinc, T_Sinc_UGRG,390.4, hit,2,0
55,1, T_Sinc, T_Sinc_UGRG,473.9, hit,2,0
56,1, T_Scon, T_Scon_URLR,457.4, hit,1,0
57,1, T_Sinc, T_Sinc_DRLR,520.8, hit,1,0
58,1, T_Sinc, T_Sinc_UGRG,492.2, hit,2,0
59,1, T_Sinc, T_Sinc_DRLR,343.7, hit,1,0
60,1, T_Scon, T_Scon_DGRG,339.2, incorrect,1,1
61,1, T_Scon, T_Scon_DGRG,558.5, hit,2,0
62,1, T_Sinc, T_Sinc_UGRG,418, hit,2,0
63,1, T_Scon, T_Scon_DGRG,405.4, hit,2,0
64,1, T_Sinc, T_Sinc_UGRG,432.8, hit,2,0
65,1, T_Sinc, T_Sinc_DRLR,428.3, hit,1,0
66,1, T_Scon, T_Scon_URLR,663.7, hit,1,0
67,1, T_Sinc, T_Sinc_DRLR,555.2, hit,1,0
68,1, T_Scon, T_Scon_DGRG,430.6, hit,2,0
69,1, T_Sinc, T_Sinc_UGRG,474.1, hit,2,0
70,1, T_Scon, T_Scon_DGRG,373.5, hit,2,0
71,1, T_Sinc, T_Sinc_UGRG,348.9, hit,2,0
72,1, T_Sinc, T_Sinc_DRLR,368.4, hit,1,0
73,1, T_Sinc, T_Sinc_DRLR,0.2, miss,1940870,1
74,1, T_Sinc, T_Sinc_DRLR,0.1, miss,1960036,1
75,1, T_Sinc, T_Sinc_DRLR,98.4, hit,1,0
76,1, T_Sinc, T_Sinc_UGRG,409.9, hit,2,0
77,1, T_Scon, T_Scon_DGRG,509.2, hit,2,0
78,1, T_Sinc, T_Sinc_UGRG,316.7, hit,2,0
79,1, T_Sinc, T_Sinc_UGRG,380.2, hit,2,0
80,1, T_Sinc, T_Sinc_UGRG,487.6, hit,2,0
81,1, T_Sinc, T_Sinc_UGRG,323, hit,2,0
82,1, T_Scon, T_Scon_URLR,398.5, hit,1,0
83,1, T_Scon, T_Scon_URLR,301.9, hit,1,0
84,1, T_Sinc, T_Sinc_DRLR,449.3, hit,1,0
85,1, T_Scon, T_Scon_URLR,404.8, hit,1,0
86,1, T_Sinc, T_Sinc_UGRG,528.2, hit,2,0
87,1, T_Sinc, T_Sinc_DRLR,375.6, hit,1,0
88,1, T_Sinc, T_Sinc_DRLR,467.2, hit,1,0
89,1, T_Sinc, T_Sinc_DRLR,358.5, hit,1,0
90,1, T_Sinc, T_Sinc_UGRG,566, hit,2,0
91,1, T_Scon, T_Scon_DGRG,433.4, hit,2,0
92,1, T_Sinc, T_Sinc_UGRG,284.8, hit,2,0
93,1, T_Sinc, T_Sinc_DRLR,384.3, hit,1,0
94,1, T_Sinc, T_Sinc_DRLR,475.7, hit,1,0
95,1, T_Sinc, T_Sinc_DRLR,383.1, hit,1,0
96,1, T_Scon, T_Scon_DGRG,382.6, hit,2,0
97,1, T_Scon, T_Scon_DGRG,438.1, hit,2,0
98,1, T_Sinc, T_Sinc_UGRG,673.4, hit,2,0
99,1, T_Sinc, T_Sinc_DRLR,356.9, hit,1,0
100,1, T_Scon, T_Scon_URLR,484.4, hit,1,0
101,1, T_Sinc, T_Sinc_DRLR,347.7, hit,1,0
102,1, T_Scon, T_Scon_DGRG,503.2, hit,2,0
103,1, T_Sinc, T_Sinc_DRLR,390.7, hit,1,0
104,1, T_Sinc, T_Sinc_DRLR,386, hit,1,0
105,1, T_Sinc, T_Sinc_UGRG,437.5, hit,2,0
106,1, T_Scon, T_Scon_URLR,473, hit,1,0
107,1, T_Sinc, T_Sinc_DRLR,532.4, hit,1,0
108,1, T_Scon, T_Scon_URLR,399.8, hit,1,0
109,1, T_Sinc, T_Sinc_UGRG,559, hit,2,0
110,1, T_Sinc, T_Sinc_DRLR,390.5, hit,1,0
111,1, T_Sinc, T_Sinc_DRLR,433.9, hit,1,0
112,1, T_Scon, T_Scon_URLR,429.3, hit,1,0
113,1, T_Sinc, T_Sinc_UGRG,392.8, hit,2,0
114,1, T_Sinc, T_Sinc_UGRG,360.2, hit,2,0
115,1, T_Sinc, T_Sinc_UGRG,387.7, hit,2,0
116,1, T_Sinc, T_Sinc_DRLR,383.1, hit,1,0
117,1, T_Sinc, T_Sinc_DRLR,306.5, hit,1,0
118,1, T_Sinc, T_Sinc_UGRG,298, hit,2,0
119,1, T_Sinc, T_Sinc_UGRG,333.4, hit,2,0
120,1, T_Sinc, T_Sinc_DRLR,296.9, hit,1,0
121,1, T_Scon, T_Scon_DGRG,328.2, hit,2,0
122,1, T_Sinc, T_Sinc_UGRG,563.7, hit,2,0
123,1, T_Sinc, T_Sinc_DRLR,391.2, hit,1,0
124,1, T_Scon, T_Scon_URLR,482.6, hit,1,0
125,1, T_Scon, T_Scon_URLR,446, hit,1,0
126,1, T_Sinc, T_Sinc_UGRG,453.5, hit,2,0
127,1, T_Sinc, T_Sinc_DRLR,560.8, hit,1,0
128,1, T_Sinc, T_Sinc_DRLR,416.3, hit,1,0
129,1, T_Scon, T_Scon_DGRG,491.8, hit,2,0
130,1, T_Sinc, T_Sinc_DRLR,255.2, hit,1,0
131,1, T_Sinc, T_Sinc_UGRG,322.6, hit,2,0
132,1, T_Sinc, T_Sinc_UGRG,570.1, hit,2,0
133,1, T_Sinc, T_Sinc_UGRG,361.5, hit,2,0
134,1, T_Sinc, T_Sinc_DRLR,296.9, hit,1,0
135,1, T_Scon, T_Scon_URLR,412.4, incorrect,2,1
136,1, T_Sinc, T_Sinc_UGRG,515.9, hit,2,0
137,1, T_Sinc, T_Sinc_UGRG,659.2, hit,2,0
138,1, T_Sinc, T_Sinc_DRLR,270.7, hit,1,0
139,1, T_Sinc, T_Sinc_UGRG,370.2, hit,2,0
140,1, T_Sinc, T_Sinc_DRLR,305.6, hit,1,0
141,1, T_Scon, T_Scon_DGRG,433, hit,2,0
142,1, T_Sinc, T_Sinc_DRLR,484.5, hit,1,0
143,1, T_Sinc, T_Sinc_UGRG,335.9, hit,2,0
144,1, T_Scon, T_Scon_DGRG,587.3, hit,2,0
145,2, T_Sinc, T_Sinc_UGRG,689.5, hit,2,0
146,2, T_Sinc, T_Sinc_UGRG,284.9, hit,2,0
147,2, T_Sinc, T_Sinc_UGRG,264.4, hit,2,0
148,2, T_Sinc, T_Sinc_DRLR,355.8, hit,1,0
149,2, T_Scon, T_Scon_URLR,279.2, hit,1,0
150,2, T_Sinc, T_Sinc_UGRG,374.7, hit,2,0
151,2, T_Sinc, T_Sinc_UGRG,446, hit,2,0
152,2, T_Sinc, T_Sinc_UGRG,349.5, hit,2,0
153,2, T_Scon, T_Scon_URLR,341, hit,1,0
154,2, T_Sinc, T_Sinc_DRLR,260.4, hit,1,0
155,2, T_Scon, T_Scon_URLR,403.8, hit,1,0
156,2, T_Sinc, T_Sinc_DRLR,259.3, hit,1,0
157,2, T_Sinc, T_Sinc_DRLR,342.8, hit,1,0
158,2, T_Sinc, T_Sinc_UGRG,346.1, hit,2,0
159,2, T_Sinc, T_Sinc_UGRG,349.6, hit,2,0
160,2, T_Scon, T_Scon_DGRG,421, hit,2,0
161,2, T_Sinc, T_Sinc_UGRG,316.4, hit,2,0
162,2, T_Scon, T_Scon_URLR,339.9, hit,1,0
163,2, T_Scon, T_Scon_URLR,271.3, hit,1,0
164,2, T_Sinc, T_Sinc_DRLR,274.8, hit,1,0
165,2, T_Scon, T_Scon_URLR,294.3, hit,1,0
166,2, T_Sinc, T_Sinc_UGRG,297.6, hit,2,0
167,2, T_Sinc, T_Sinc_DRLR,369.1, hit,1,0
168,2, T_Scon, T_Scon_DGRG,560.5, hit,2,0
169,2, T_Sinc, T_Sinc_DRLR,395.9, hit,1,0
170,2, T_Scon, T_Scon_DGRG,291.4, hit,2,0
171,2, T_Sinc, T_Sinc_UGRG,502.9, hit,2,0
172,2, T_Scon, T_Scon_DGRG,414.2, hit,2,0
173,2, T_Sinc, T_Sinc_DRLR,521.7, hit,1,0
174,2, T_Scon, T_Scon_URLR,741.1, hit,1,0
175,2, T_Sinc, T_Sinc_UGRG,528.6, hit,2,0
176,2, T_Sinc, T_Sinc_UGRG,424, hit,2,0
177,2, T_Scon, T_Scon_DGRG,555.5, hit,2,0
178,2, T_Sinc, T_Sinc_DRLR,926.9, hit,1,2
179,2, T_Sinc, T_Sinc_UGRG,598.3, hit,2,0
180,2, T_Scon, T_Scon_URLR,473.8, hit,1,0
181,2, T_Sinc, T_Sinc_DRLR,541, hit,1,0
182,2, T_Sinc, T_Sinc_UGRG,376.4, hit,2,0
183,2, T_Sinc, T_Sinc_UGRG,259.8, hit,2,0
184,2, T_Sinc, T_Sinc_UGRG,431.2, hit,2,0
185,2, T_Sinc, T_Sinc_DRLR,374.7, hit,1,0
186,2, T_Sinc, T_Sinc_UGRG,254.1, hit,2,0
187,2, T_Sinc, T_Sinc_UGRG,641.6, hit,2,0
188,2, T_Scon, T_Scon_DGRG,385, hit,2,0
189,2, T_Sinc, T_Sinc_UGRG,356.5, hit,2,0
190,2, T_Sinc, T_Sinc_UGRG,323.9, hit,2,0
191,2, T_Sinc, T_Sinc_DRLR,303.3, hit,1,0
192,2, T_Sinc, T_Sinc_DRLR,370.8, hit,1,0
193,2, T_Scon, T_Scon_DGRG,394.2, hit,2,0
194,2, T_Sinc, T_Sinc_DRLR,465.6, hit,1,0
195,2, T_Sinc, T_Sinc_UGRG,421.1, hit,2,0
196,2, T_Sinc, T_Sinc_UGRG,464.5, hit,2,0
197,2, T_Sinc, T_Sinc_DRLR,432, hit,1,0
198,2, T_Sinc, T_Sinc_DRLR,367.4, hit,1,0
199,2, T_Scon, T_Scon_URLR,578.8, hit,1,0
200,2, T_Sinc, T_Sinc_DRLR,370.3, hit,1,0
201,2, T_Sinc, T_Sinc_UGRG,405.7, hit,2,0
202,2, T_Sinc, T_Sinc_DRLR,409.1, hit,1,0
203,2, T_Sinc, T_Sinc_DRLR,380.6, hit,1,0
204,2, T_Scon, T_Scon_URLR,296.1, incorrect,2,1
205,2, T_Scon, T_Scon_URLR,419.5, incorrect,2,1
206,2, T_Sinc, T_Sinc_UGRG,454.9, hit,2,0
207,2, T_Sinc, T_Sinc_DRLR,322.4, hit,1,0
208,2, T_Sinc, T_Sinc_UGRG,557.7, hit,2,0
209,2, T_Sinc, T_Sinc_DRLR,289.2, hit,1,0
210,2, T_Sinc, T_Sinc_UGRG,428.7, hit,2,0
211,2, T_Sinc, T_Sinc_DRLR,496, hit,1,0
212,2, T_Sinc, T_Sinc_DRLR,431.5, hit,1,0
213,2, T_Sinc, T_Sinc_UGRG,603, hit,2,0
214,2, T_Sinc, T_Sinc_DRLR,318.4, hit,1,0
215,2, T_Scon, T_Scon_DGRG,385.8, hit,2,0
216,2, T_Sinc, T_Sinc_DRLR,333.3, hit,1,0
217,2, T_Sinc, T_Sinc_UGRG,836.5, hit,2,0
218,2, T_Sinc, T_Sinc_UGRG,395.8, hit,2,0
219,2, T_Sinc, T_Sinc_DRLR,247.3, hit,1,0
220,2, T_Sinc, T_Sinc_DRLR,246.8, hit,1,0
221,2, T_Sinc, T_Sinc_DRLR,454.1, hit,1,0
222,2, T_Scon, T_Scon_DGRG,481.6, hit,2,0
223,2, T_Scon, T_Scon_URLR,509.1, hit,1,0
224,2, T_Sinc, T_Sinc_UGRG,600.4, hit,2,0
225,2, T_Sinc, T_Sinc_DRLR,347.9, hit,1,0
226,2, T_Sinc, T_Sinc_DRLR,455.4, hit,1,0
227,2, T_Sinc, T_Sinc_DRLR,402.9, hit,1,0
228,2, T_Sinc, T_Sinc_UGRG,414.2, hit,2,0
229,2, T_Sinc, T_Sinc_DRLR,357.7, hit,1,0
230,2, T_Scon, T_Scon_URLR,417.1, hit,1,0
231,2, T_Scon, T_Scon_DGRG,288.5, incorrect,1,1
232,2, T_Sinc, T_Sinc_UGRG,512, hit,2,0
233,2, T_Sinc, T_Sinc_UGRG,379.5, hit,2,0
234,2, T_Sinc, T_Sinc_DRLR,398.8, hit,1,0
235,2, T_Sinc, T_Sinc_DRLR,394.3, hit,1,0
236,2, T_Sinc, T_Sinc_UGRG,653.8, hit,2,0
237,2, T_Scon, T_Scon_DGRG,273.2, incorrect,1,1
238,2, T_Sinc, T_Sinc_UGRG,380.6, hit,2,0
239,2, T_Scon, T_Scon_DGRG,384.1, hit,2,0
240,2, T_Scon, T_Scon_URLR,431.6, hit,1,0
241,2, T_Sinc, T_Sinc_DRLR,482.9, hit,1,0
242,2, T_Scon, T_Scon_DGRG,574.4, hit,2,0
243,2, T_Sinc, T_Sinc_UGRG,277.8, hit,2,0
244,2, T_Sinc, T_Sinc_DRLR,329.2, hit,1,0
245,2, T_Scon, T_Scon_URLR,332.7, incorrect,2,1
246,2, T_Scon, T_Scon_URLR,376.1, hit,1,0
247,2, T_Sinc, T_Sinc_DRLR,435.6, hit,1,0
248,2, T_Sinc, T_Sinc_UGRG,319, hit,2,0
249,2, T_Sinc, T_Sinc_UGRG,366.5, hit,2,0
250,2, T_Sinc, T_Sinc_UGRG,697.9, hit,2,0
251,2, T_Scon, T_Scon_DGRG,333.3, hit,2,0
252,2, T_Sinc, T_Sinc_DRLR,376.8, hit,1,0
253,2, T_Sinc, T_Sinc_UGRG,616, hit,2,0
254,2, T_Sinc, T_Sinc_DRLR,399.3, hit,1,0
255,2, T_Sinc, T_Sinc_UGRG,514.8, hit,2,0
256,2, T_Sinc, T_Sinc_DRLR,382.3, hit,1,0
257,2, T_Sinc, T_Sinc_DRLR,833.7, hit,1,0
258,2, T_Sinc, T_Sinc_DRLR,385.1, hit,1,0
259,2, T_Sinc, T_Sinc_DRLR,332.6, hit,1,0
260,2, T_Scon, T_Scon_DGRG,384, hit,2,0
261,2, T_Sinc, T_Sinc_UGRG,427.4, hit,2,0
262,2, T_Sinc, T_Sinc_DRLR,390.9, hit,1,0
263,2, T_Sinc, T_Sinc_UGRG,798.3, hit,2,0
264,2, T_Sinc, T_Sinc_DRLR,329.8, hit,1,0
265,2, T_Sinc, T_Sinc_UGRG,265.2, hit,2,0
266,2, T_Sinc, T_Sinc_DRLR,236.7, hit,1,0
267,2, T_Scon, T_Scon_URLR,216, incorrect,2,1
268,2, T_Sinc, T_Sinc_UGRG,339.5, hit,2,0
269,2, T_Sinc, T_Sinc_DRLR,303, hit,1,0
270,2, T_Sinc, T_Sinc_UGRG,362.4, hit,2,0
271,2, T_Sinc, T_Sinc_UGRG,401.8, hit,2,0
272,2, T_Sinc, T_Sinc_DRLR,309.3, hit,1,0
273,2, T_Sinc, T_Sinc_UGRG,400.7, hit,2,0
274,2, T_Sinc, T_Sinc_UGRG,636.1, hit,2,0
275,2, T_Sinc, T_Sinc_DRLR,379.6, hit,1,0
276,2, T_Scon, T_Scon_URLR,371, hit,1,0
277,2, T_Scon, T_Scon_DGRG,494.4, hit,2,0
278,2, T_Sinc, T_Sinc_UGRG,333.9, hit,2,0
279,2, T_Sinc, T_Sinc_UGRG,537.3, hit,2,0
280,2, T_Sinc, T_Sinc_DRLR,256.8, hit,1,0
281,2, T_Sinc, T_Sinc_DRLR,344.2, hit,1,0
282,2, T_Sinc, T_Sinc_UGRG,315.6, hit,2,0
283,2, T_Sinc, T_Sinc_DRLR,279.1, hit,1,0
284,2, T_Sinc, T_Sinc_DRLR,454.5, hit,1,0
285,2, T_Scon, T_Scon_DGRG,329.9, hit,2,0
286,2, T_Sinc, T_Sinc_UGRG,273.4, incorrect,1,1
287,2, T_Scon, T_Scon_DGRG,716.8, hit,2,0
288,2, T_Sinc, T_Sinc_DRLR,552.2, hit,1,0
289,3, T_Sinc, T_Sinc_DRLR,546.2, hit,1,0
290,3, T_Scon, T_Scon_DGRG,389.7, hit,2,0
291,3, T_Sinc, T_Sinc_DRLR,317, hit,1,0
292,3, T_Scon, T_Scon_URLR,296.5, hit,1,0
293,3, T_Sinc, T_Sinc_DRLR,435.9, hit,1,0
294,3, T_Sinc, T_Sinc_DRLR,343.3, hit,1,0
295,3, T_Sinc, T_Sinc_UGRG,490.8, hit,2,0
296,3, T_Sinc, T_Sinc_UGRG,358.1, hit,2,0
297,3, T_Sinc, T_Sinc_UGRG,437.6, hit,2,0
298,3, T_Sinc, T_Sinc_DRLR,297.1, hit,1,0
299,3, T_Scon, T_Scon_DGRG,456.6, hit,2,0
300,3, T_Sinc, T_Sinc_DRLR,363.9, hit,1,0
301,3, T_Sinc, T_Sinc_UGRG,415.4, hit,2,0
302,3, T_Sinc, T_Sinc_DRLR,298.8, hit,1,0
303,3, T_Sinc, T_Sinc_DRLR,446.2, hit,1,0
304,3, T_Sinc, T_Sinc_DRLR,293.7, hit,1,0
305,3, T_Scon, T_Scon_URLR,257.1, hit,1,0
306,3, T_Sinc, T_Sinc_UGRG,588.6, hit,2,0
307,3, T_Sinc, T_Sinc_DRLR,392, hit,1,0
308,3, T_Scon, T_Scon_DGRG,483.4, hit,2,0
309,3, T_Sinc, T_Sinc_DRLR,530.9, hit,1,0
310,3, T_Sinc, T_Sinc_UGRG,386.3, hit,2,0
311,3, T_Scon, T_Scon_DGRG,485.8, hit,2,0
312,3, T_Sinc, T_Sinc_UGRG,701.2, incorrect,1,1
313,3, T_Sinc, T_Sinc_UGRG,412.6, hit,2,0
314,3, T_Sinc, T_Sinc_UGRG,408.1, hit,2,0
315,3, T_Scon, T_Scon_DGRG,327.5, hit,2,0
316,3, T_Sinc, T_Sinc_UGRG,331, hit,2,0
317,3, T_Sinc, T_Sinc_DRLR,510.4, hit,1,0
318,3, T_Sinc, T_Sinc_DRLR,449.8, hit,1,0
319,3, T_Sinc, T_Sinc_UGRG,297.3, hit,2,0
320,3, T_Sinc, T_Sinc_UGRG,372.7, hit,2,0
321,3, T_Sinc, T_Sinc_UGRG,352.1, hit,2,0
322,3, T_Sinc, T_Sinc_UGRG,371.6, hit,2,0
323,3, T_Sinc, T_Sinc_DRLR,395, hit,1,0
324,3, T_Sinc, T_Sinc_DRLR,518.5, hit,1,0
325,3, T_Sinc, T_Sinc_UGRG,789.7, hit,2,0
326,3, T_Sinc, T_Sinc_UGRG,269, hit,2,0
327,3, T_Sinc, T_Sinc_DRLR,520.5, hit,1,0
328,3, T_Sinc, T_Sinc_UGRG,460, hit,2,0
329,3, T_Sinc, T_Sinc_DRLR,387.4, hit,1,0
330,3, T_Sinc, T_Sinc_UGRG,422.8, hit,2,0
331,3, T_Scon, T_Scon_URLR,346.3, hit,1,0
332,3, T_Sinc, T_Sinc_UGRG,701.7, hit,2,0
333,3, T_Scon, T_Scon_URLR,361.1, hit,1,0
334,3, T_Scon, T_Scon_URLR,456.6, hit,1,0
335,3, T_Sinc, T_Sinc_DRLR,372.1, hit,1,0
336,3, T_Sinc, T_Sinc_UGRG,591.5, hit,2,0
337,3, T_Sinc, T_Sinc_UGRG,326.9, hit,2,0
338,3, T_Sinc, T_Sinc_UGRG,294.4, hit,2,0
339,3, T_Sinc, T_Sinc_DRLR,441.7, hit,1,0
340,3, T_Sinc, T_Sinc_DRLR,365.2, hit,1,0
341,3, T_Sinc, T_Sinc_DRLR,360.7, hit,1,0
342,3, T_Sinc, T_Sinc_DRLR,364.1, hit,1,0
343,3, T_Sinc, T_Sinc_DRLR,327.5, hit,1,0
344,3, T_Sinc, T_Sinc_DRLR,439, hit,1,0
345,3, T_Sinc, T_Sinc_UGRG,314.4, hit,2,0
346,3, T_Sinc, T_Sinc_DRLR,417.8, hit,1,0
347,3, T_Sinc, T_Sinc_DRLR,341.3, hit,1,0
348,3, T_Sinc, T_Sinc_UGRG,392.7, hit,2,0
349,3, T_Sinc, T_Sinc_DRLR,324.1, hit,1,0
350,3, T_Scon, T_Scon_DGRG,411.6, hit,2,0
351,3, T_Sinc, T_Sinc_DRLR,363, hit,1,0
352,3, T_Sinc, T_Sinc_UGRG,274.5, hit,2,0
353,3, T_Sinc, T_Sinc_UGRG,509.9, hit,2,0
354,3, T_Sinc, T_Sinc_DRLR,261.3, hit,1,0
355,3, T_Sinc, T_Sinc_DRLR,264.8, hit,1,0
356,3, T_Scon, T_Scon_DGRG,308.2, hit,2,0
357,3, T_Sinc, T_Sinc_DRLR,351.6, hit,1,0
358,3, T_Scon, T_Scon_DGRG,431.1, incorrect,1,1
359,3, T_Sinc, T_Sinc_UGRG,378.5, hit,2,0
360,3, T_Sinc, T_Sinc_UGRG,397.9, hit,2,0
361,3, T_Sinc, T_Sinc_UGRG,589.1, hit,2,0
362,3, T_Scon, T_Scon_URLR,380.6, hit,1,0
363,3, T_Sinc, T_Sinc_DRLR,260, hit,1,0
364,3, T_Sinc, T_Sinc_UGRG,351.4, hit,2,0
365,3, T_Sinc, T_Sinc_UGRG,342.9, hit,2,0
366,3, T_Sinc, T_Sinc_UGRG,394.3, hit,2,0
367,3, T_Sinc, T_Sinc_UGRG,397.8, hit,2,0
368,3, T_Sinc, T_Sinc_UGRG,285.2, hit,2,0
369,3, T_Scon, T_Scon_URLR,328.6, hit,1,0
370,3, T_Sinc, T_Sinc_UGRG,572.1, hit,2,0
371,3, T_Sinc, T_Sinc_DRLR,399.5, hit,1,0
372,3, T_Scon, T_Scon_DGRG,798.9, hit,2,0
373,3, T_Scon, T_Scon_URLR,618.4, hit,1,0
374,3, T_Sinc, T_Sinc_UGRG,393.8, hit,2,0
375,3, T_Sinc, T_Sinc_DRLR,413.3, hit,1,0
376,3, T_Sinc, T_Sinc_UGRG,552.7, hit,2,0
377,3, T_Sinc, T_Sinc_UGRG,428.1, hit,2,0
378,3, T_Sinc, T_Sinc_DRLR,423.6, hit,1,0
379,3, T_Sinc, T_Sinc_UGRG,387.1, hit,2,0
380,3, T_Scon, T_Scon_URLR,526.4, hit,1,0
381,3, T_Sinc, T_Sinc_UGRG,321.9, hit,2,0
382,3, T_Scon, T_Scon_DGRG,873.4, hit,2,2
383,3, T_Scon, T_Scon_URLR,560.7, hit,1,0
384,3, T_Scon, T_Scon_URLR,364.2, incorrect,2,1
385,3, T_Sinc, T_Sinc_UGRG,615.7, hit,2,0
386,3, T_Scon, T_Scon_DGRG,315.1, incorrect,1,1
387,3, T_Sinc, T_Sinc_DRLR,542.5, hit,1,0
388,3, T_Scon, T_Scon_DGRG,586, hit,2,0
389,3, T_Scon, T_Scon_URLR,489.3, hit,1,0
390,3, T_Sinc, T_Sinc_DRLR,452.8, hit,1,0
391,3, T_Scon, T_Scon_DGRG,400.3, incorrect,1,1
392,3, T_Sinc, T_Sinc_UGRG,331.7, hit,2,0
393,3, T_Scon, T_Scon_DGRG,331.1, hit,2,0
394,3, T_Sinc, T_Sinc_DRLR,390.6, hit,1,0
395,3, T_Scon, T_Scon_DGRG,350, hit,2,0
396,3, T_Scon, T_Scon_URLR,393.4, hit,1,0
397,3, T_Scon, T_Scon_URLR,400.6, incorrect,2,1
398,3, T_Sinc, T_Sinc_UGRG,436.1, hit,2,0
399,3, T_Sinc, T_Sinc_DRLR,287.4, hit,1,0
400,3, T_Sinc, T_Sinc_UGRG,458.9, hit,2,0
401,3, T_Sinc, T_Sinc_UGRG,414.4, hit,2,0
402,3, T_Scon, T_Scon_URLR,429.8, hit,1,0
403,3, T_Sinc, T_Sinc_DRLR,509.2, hit,1,0
404,3, T_Sinc, T_Sinc_DRLR,392.7, hit,1,0
405,3, T_Sinc, T_Sinc_DRLR,364.2, hit,1,0
406,3, T_Scon, T_Scon_DGRG,463.5, hit,2,0
407,3, T_Scon, T_Scon_URLR,423, hit,1,0
408,3, T_Sinc, T_Sinc_DRLR,518.5, hit,1,0
409,3, T_Sinc, T_Sinc_UGRG,425.8, hit,2,0
410,3, T_Sinc, T_Sinc_UGRG,377.3, hit,2,0
411,3, T_Sinc, T_Sinc_DRLR,384.8, hit,1,0
412,3, T_Scon, T_Scon_URLR,372.2, hit,1,0
413,3, T_Sinc, T_Sinc_DRLR,299.6, hit,1,0
414,3, T_Sinc, T_Sinc_DRLR,399.1, hit,1,0
415,3, T_Sinc, T_Sinc_UGRG,286.5, hit,2,0
416,3, T_Scon, T_Scon_DGRG,333.9, hit,2,0
417,3, T_Sinc, T_Sinc_DRLR,405.4, hit,1,0
418,3, T_Sinc, T_Sinc_UGRG,408.8, hit,2,0
419,3, T_Sinc, T_Sinc_DRLR,404.2, hit,1,0
420,3, T_Scon, T_Scon_DGRG,475.7, hit,2,0
421,3, T_Sinc, T_Sinc_DRLR,407.1, hit,1,0
422,3, T_Sinc, T_Sinc_UGRG,262.6, hit,2,0
423,3, T_Scon, T_Scon_URLR,450, hit,1,0
424,3, T_Sinc, T_Sinc_DRLR,373.4, hit,1,0
425,3, T_Sinc, T_Sinc_UGRG,272.9, hit,2,0
426,3, T_Sinc, T_Sinc_DRLR,332.3, hit,1,0
427,3, T_Sinc, T_Sinc_UGRG,203.8, hit,2,0
428,3, T_Sinc, T_Sinc_UGRG,543.2, hit,2,0
429,3, T_Sinc, T_Sinc_DRLR,378.6, hit,1,0
430,3, T_Sinc, T_Sinc_DRLR,362.1, hit,1,0
431,3, T_Sinc, T_Sinc_DRLR,397.5, hit,1,0
432,3, T_Sinc, T_Sinc_UGRG,345, hit,2,0
433,4, T_Scon, T_Scon_URLR,726.5, incorrect,2,1
434,4, T_Scon, T_Scon_DGRG,650, hit,2,0
435,4, T_Scon, T_Scon_DGRG,333.4, incorrect,1,1
436,4, T_Scon, T_Scon_URLR,420.8, hit,1,0
437,4, T_Sinc, T_Sinc_UGRG,600.3, hit,2,0
438,4, T_Scon, T_Scon_DGRG,355.8, hit,2,0
439,4, T_Scon, T_Scon_DGRG,579.1, hit,2,0
440,4, T_Scon, T_Scon_DGRG,386.6, hit,2,0
441,4, T_Scon, T_Scon_DGRG,374.1, hit,2,0
442,4, T_Scon, T_Scon_URLR,569.4, hit,1,0
443,4, T_Scon, T_Scon_DGRG,288.9, incorrect,1,1
444,4, T_Scon, T_Scon_DGRG,508.4, hit,2,0
445,4, T_Sinc, T_Sinc_UGRG,303.8, hit,2,0
446,4, T_Scon, T_Scon_DGRG,319.2, hit,2,0
447,4, T_Sinc, T_Sinc_DRLR,402.7, hit,1,0
448,4, T_Scon, T_Scon_DGRG,338.2, hit,2,0
449,4, T_Scon, T_Scon_DGRG,693.5, hit,2,0
450,4, T_Scon, T_Scon_URLR,433, hit,1,0
451,4, T_Sinc, T_Sinc_UGRG,332.5, hit,2,0
452,4, T_Scon, T_Scon_URLR,387.8, hit,1,0
453,4, T_Sinc, T_Sinc_UGRG,383.3, hit,2,0
454,4, T_Scon, T_Scon_URLR,414.8, hit,1,0
455,4, T_Scon, T_Scon_URLR,354.1, hit,1,0
456,4, T_Scon, T_Scon_DGRG,669.6, hit,2,0
457,4, T_Sinc, T_Sinc_UGRG,501.1, hit,2,0
458,4, T_Scon, T_Scon_DGRG,392.5, hit,2,0
459,4, T_Scon, T_Scon_DGRG,303.9, hit,2,0
460,4, T_Scon, T_Scon_DGRG,459.4, hit,2,0
461,4, T_Scon, T_Scon_DGRG,678.8, hit,2,0
462,4, T_Scon, T_Scon_DGRG,866.2, hit,2,2
463,4, T_Scon, T_Scon_DGRG,325.7, hit,2,0
464,4, T_Scon, T_Scon_URLR,437.1, hit,1,0
465,4, T_Scon, T_Scon_URLR,308.6, hit,1,0
466,4, T_Scon, T_Scon_DGRG,432, hit,2,0
467,4, T_Scon, T_Scon_DGRG,315.4, hit,2,0
468,4, T_Sinc, T_Sinc_UGRG,306.9, hit,2,0
469,4, T_Scon, T_Scon_URLR,554.1, hit,1,0
470,4, T_Sinc, T_Sinc_DRLR,373.5, hit,1,0
471,4, T_Scon, T_Scon_DGRG,228.9, incorrect,1,1
472,4, T_Scon, T_Scon_URLR,400.3, hit,1,0
473,4, T_Sinc, T_Sinc_DRLR,427.8, hit,1,0
474,4, T_Scon, T_Scon_URLR,439.2, hit,1,0
475,4, T_Scon, T_Scon_URLR,378.6, hit,1,0
476,4, T_Scon, T_Scon_URLR,334.1, hit,1,0
477,4, T_Scon, T_Scon_URLR,425.5, hit,1,0
478,4, T_Sinc, T_Sinc_DRLR,332.9, hit,1,0
479,4, T_Scon, T_Scon_URLR,320.4, hit,1,0
480,4, T_Scon, T_Scon_DGRG,435.8, hit,2,0
481,4, T_Scon, T_Scon_URLR,379.3, hit,1,0
482,4, T_Scon, T_Scon_URLR,382.7, hit,1,0
483,4, T_Scon, T_Scon_DGRG,318.1, hit,2,0
484,4, T_Sinc, T_Sinc_DRLR,309.6, hit,1,0
485,4, T_Scon, T_Scon_URLR,369, hit,1,0
486,4, T_Scon, T_Scon_URLR,384.5, hit,1,0
487,4, T_Sinc, T_Sinc_DRLR,295.9, hit,1,0
488,4, T_Scon, T_Scon_DGRG,331.4, incorrect,1,1
489,4, T_Scon, T_Scon_DGRG,326.7, hit,2,0
490,4, T_Scon, T_Scon_URLR,410.2, hit,1,0
491,4, T_Scon, T_Scon_URLR,405.7, hit,1,0
492,4, T_Scon, T_Scon_URLR,353, hit,1,0
493,4, T_Scon, T_Scon_DGRG,456.5, hit,2,0
494,4, T_Sinc, T_Sinc_DRLR,428, hit,1,0
495,4, T_Scon, T_Scon_DGRG,315.3, incorrect,1,1
496,4, T_Scon, T_Scon_URLR,418.8, hit,1,0
497,4, T_Scon, T_Scon_URLR,370.3, hit,1,0
498,4, T_Scon, T_Scon_DGRG,381.7, hit,2,0
499,4, T_Scon, T_Scon_URLR,477.1, hit,1,0
500,4, T_Scon, T_Scon_URLR,400.6, hit,1,0
501,4, T_Scon, T_Scon_URLR,420.1, hit,1,0
502,4, T_Scon, T_Scon_DGRG,383.4, hit,2,0
503,4, T_Scon, T_Scon_URLR,554.9, hit,1,0
504,4, T_Sinc, T_Sinc_UGRG,386.4, hit,2,0
505,4, T_Scon, T_Scon_DGRG,521.5, hit,2,0
506,4, T_Scon, T_Scon_URLR,440.9, hit,1,0
507,4, T_Scon, T_Scon_URLR,352.4, hit,1,0
508,4, T_Sinc, T_Sinc_DRLR,427.8, hit,1,0
509,4, T_Scon, T_Scon_URLR,499.2, hit,1,0
510,4, T_Scon, T_Scon_URLR,378.7, hit,1,0
511,4, T_Scon, T_Scon_URLR,470.1, hit,1,0
512,4, T_Scon, T_Scon_DGRG,493.6, hit,2,0
513,4, T_Sinc, T_Sinc_DRLR,481, hit,1,0
514,4, T_Scon, T_Scon_DGRG,356.4, hit,2,0
515,4, T_Scon, T_Scon_URLR,463.8, hit,1,0
516,4, T_Scon, T_Scon_URLR,519.3, hit,1,0
517,4, T_Scon, T_Scon_DGRG,518.7, hit,2,0
518,4, T_Sinc, T_Sinc_DRLR,434.1, hit,1,0
519,4, T_Scon, T_Scon_URLR,597.6, hit,1,0
520,4, T_Scon, T_Scon_URLR,577, hit,1,0
521,4, T_Scon, T_Scon_DGRG,436.5, hit,2,0
522,4, T_Scon, T_Scon_DGRG,487.9, hit,2,0
523,4, T_Scon, T_Scon_DGRG,503.4, hit,2,0
524,4, T_Sinc, T_Sinc_UGRG,450.8, hit,2,0
525,4, T_Scon, T_Scon_URLR,430.2, hit,1,0
526,4, T_Scon, T_Scon_URLR,393.7, hit,1,0
527,4, T_Scon, T_Scon_URLR,469.1, hit,1,0
528,4, T_Scon, T_Scon_URLR,528.5, hit,1,0
529,4, T_Sinc, T_Sinc_UGRG,500, hit,2,0
530,4, T_Scon, T_Scon_URLR,423.5, hit,1,0
531,4, T_Scon, T_Scon_DGRG,426.9, hit,2,0
532,4, T_Scon, T_Scon_URLR,454.3, hit,1,0
533,4, T_Sinc, T_Sinc_DRLR,409.8, hit,1,0
534,4, T_Scon, T_Scon_URLR,457.2, hit,1,0
535,4, T_Sinc, T_Sinc_UGRG,556.6, hit,2,0
536,4, T_Sinc, T_Sinc_DRLR,432.1, hit,1,0
537,4, T_Scon, T_Scon_DGRG,391.6, hit,2,0
538,4, T_Sinc, T_Sinc_UGRG,402.9, incorrect,1,1
539,4, T_Scon, T_Scon_URLR,446.4, hit,1,0
540,4, T_Scon, T_Scon_DGRG,385.9, hit,2,0
541,4, T_Sinc, T_Sinc_UGRG,661, hit,2,0
542,4, T_Scon, T_Scon_DGRG,404.4, hit,2,0
543,4, T_Scon, T_Scon_DGRG,379.9, hit,2,0
544,4, T_Sinc, T_Sinc_UGRG,487.4, hit,2,0
545,4, T_Scon, T_Scon_DGRG,362.7, hit,2,0
546,4, T_Sinc, T_Sinc_UGRG,322.2, hit,2,0
547,4, T_Scon, T_Scon_URLR,557.7, hit,1,0
548,4, T_Scon, T_Scon_DGRG,589, hit,2,0
549,4, T_Sinc, T_Sinc_UGRG,428.5, hit,2,0
550,4, T_Scon, T_Scon_DGRG,460, hit,2,0
551,4, T_Sinc, T_Sinc_DRLR,511.3, hit,1,0
552,4, T_Sinc, T_Sinc_DRLR,594.8, hit,1,0
553,4, T_Sinc, T_Sinc_UGRG,590.2, hit,2,0
554,4, T_Sinc, T_Sinc_DRLR,481.7, hit,1,0
555,4, T_Sinc, T_Sinc_UGRG,365.1, hit,2,0
556,4, T_Scon, T_Scon_URLR,132.5, incorrect,2,1
557,4, T_Sinc, T_Sinc_DRLR,592, hit,1,0
558,4, T_Sinc, T_Sinc_DRLR,331.4, hit,1,0
559,4, T_Scon, T_Scon_URLR,438.9, hit,1,0
560,4, T_Scon, T_Scon_DGRG,234.3, hit,2,0
561,4, T_Scon, T_Scon_DGRG,429.8, hit,2,0
562,4, T_Scon, T_Scon_URLR,161.1, incorrect,2,1
563,4, T_Scon, T_Scon_URLR,508.6, hit,1,0
564,4, T_Scon, T_Scon_DGRG,464.1, incorrect,1,1
565,4, T_Scon, T_Scon_URLR,503.5, hit,1,0
566,4, T_Scon, T_Scon_URLR,618.9, hit,1,0
567,4, T_Scon, T_Scon_DGRG,534.4, hit,2,0
568,4, T_Scon, T_Scon_DGRG,481.8, hit,2,0
569,4, T_Scon, T_Scon_DGRG,461.2, hit,2,0
570,4, T_Scon, T_Scon_URLR,476.7, hit,1,0
571,4, T_Scon, T_Scon_DGRG,636.1, hit,2,0
572,4, T_Scon, T_Scon_DGRG,499.6, hit,2,0
573,4, T_Scon, T_Scon_DGRG,403, hit,2,0
574,4, T_Scon, T_Scon_DGRG,446.5, hit,2,0
575,4, T_Sinc, T_Sinc_DRLR,433.9, hit,1,0
576,4, T_Sinc, T_Sinc_UGRG,525.3, hit,2,0
577,5, T_Scon, T_Scon_URLR,853.8, hit,1,2
578,5, T_Scon, T_Scon_URLR,365.2, hit,1,0
579,5, T_Scon, T_Scon_URLR,404.7, hit,1,0
580,5, T_Sinc, T_Sinc_UGRG,436.1, hit,2,0
581,5, T_Sinc, T_Sinc_DRLR,451.6, hit,1,0
582,5, T_Sinc, T_Sinc_DRLR,295, hit,1,0
583,5, T_Scon, T_Scon_DGRG,410.4, hit,2,0
584,5, T_Sinc, T_Sinc_UGRG,397.9, hit,2,0
585,5, T_Scon, T_Scon_DGRG,381.3, hit,2,0
586,5, T_Sinc, T_Sinc_UGRG,704.7, hit,2,0
587,5, T_Scon, T_Scon_URLR,448.2, hit,1,0
588,5, T_Scon, T_Scon_URLR,431.6, hit,1,0
589,5, T_Scon, T_Scon_URLR,427, hit,1,0
590,5, T_Sinc, T_Sinc_UGRG,334.5, hit,2,0
591,5, T_Scon, T_Scon_URLR,402, hit,1,0
592,5, T_Sinc, T_Sinc_UGRG,409.4, hit,2,0
593,5, T_Scon, T_Scon_DGRG,588.8, hit,2,0
594,5, T_Scon, T_Scon_URLR,416.3, hit,1,0
595,5, T_Scon, T_Scon_URLR,343.6, hit,1,0
596,5, T_Sinc, T_Sinc_UGRG,295.1, hit,2,0
597,5, T_Scon, T_Scon_URLR,366.6, hit,1,0
598,5, T_Scon, T_Scon_DGRG,314, hit,2,0
599,5, T_Scon, T_Scon_DGRG,397.4, hit,2,0
600,5, T_Sinc, T_Sinc_DRLR,444.9, hit,1,0
601,5, T_Scon, T_Scon_DGRG,408.4, hit,2,0
602,5, T_Scon, T_Scon_URLR,451.7, hit,1,0
603,5, T_Scon, T_Scon_URLR,463.2, hit,1,0
604,5, T_Sinc, T_Sinc_UGRG,338.7, hit,2,0
605,5, T_Scon, T_Scon_DGRG,446, hit,2,0
606,5, T_Scon, T_Scon_URLR,521.5, hit,1,0
607,5, T_Scon, T_Scon_DGRG,572.9, hit,2,0
608,5, T_Scon, T_Scon_URLR,472.4, hit,1,0
609,5, T_Scon, T_Scon_URLR,467.8, incorrect,2,1
610,5, T_Scon, T_Scon_URLR,471.3, hit,1,0
611,5, T_Scon, T_Scon_URLR,582.7, hit,1,0
612,5, T_Scon, T_Scon_DGRG,418.1, hit,2,0
613,5, T_Scon, T_Scon_DGRG,605.3, hit,2,0
614,5, T_Scon, T_Scon_DGRG,376.8, hit,2,0
615,5, T_Scon, T_Scon_DGRG,404.1, hit,2,0
616,5, T_Sinc, T_Sinc_DRLR,355.6, hit,1,0
617,5, T_Scon, T_Scon_DGRG,519.1, hit,2,0
618,5, T_Scon, T_Scon_URLR,458.4, hit,1,0
619,5, T_Sinc, T_Sinc_DRLR,375.7, hit,1,0
620,5, T_Scon, T_Scon_DGRG,731.2, hit,2,0
621,5, T_Sinc, T_Sinc_UGRG,542.6, hit,2,0
622,5, T_Scon, T_Scon_URLR,426, hit,1,0
623,5, T_Sinc, T_Sinc_UGRG,329.5, hit,2,0
624,5, T_Scon, T_Scon_URLR,460.9, hit,1,0
625,5, T_Scon, T_Scon_DGRG,504.3, hit,2,0
626,5, T_Scon, T_Scon_DGRG,443.8, hit,2,0
627,5, T_Scon, T_Scon_DGRG,443.3, hit,2,0
628,5, T_Scon, T_Scon_URLR,446.6, hit,1,0
629,5, T_Scon, T_Scon_DGRG,446.1, hit,2,0
630,5, T_Scon, T_Scon_URLR,449.6, hit,1,0
631,5, T_Scon, T_Scon_DGRG,388.9, hit,2,0
632,5, T_Scon, T_Scon_URLR,400.4, hit,1,0
633,5, T_Scon, T_Scon_DGRG,315.9, hit,2,0
634,5, T_Scon, T_Scon_DGRG,523.2, hit,2,0
635,5, T_Scon, T_Scon_DGRG,398.7, hit,2,0
636,5, T_Scon, T_Scon_DGRG,310.2, hit,2,0
637,5, T_Scon, T_Scon_URLR,437.6, hit,1,0
638,5, T_Sinc, T_Sinc_UGRG,796.9, hit,2,0
639,5, T_Scon, T_Scon_URLR,424.2, hit,1,0
640,5, T_Scon, T_Scon_URLR,335.7, incorrect,2,1
641,5, T_Scon, T_Scon_DGRG,363, hit,2,0
642,5, T_Scon, T_Scon_DGRG,330.5, hit,2,0
643,5, T_Scon, T_Scon_URLR,378, hit,1,0
644,5, T_Scon, T_Scon_URLR,285.4, incorrect,2,1
645,5, T_Scon, T_Scon_URLR,592.8, hit,1,0
646,5, T_Scon, T_Scon_URLR,572.3, hit,1,0
647,5, T_Scon, T_Scon_URLR,503.7, hit,1,0
648,5, T_Scon, T_Scon_DGRG,591.1, hit,2,0
649,5, T_Scon, T_Scon_URLR,374.6, hit,1,0
650,5, T_Scon, T_Scon_DGRG,474.1, hit,2,0
651,5, T_Scon, T_Scon_URLR,385.4, hit,1,0
652,5, T_Sinc, T_Sinc_UGRG,428.9, hit,2,0
653,5, T_Scon, T_Scon_URLR,448.4, incorrect,2,1
654,5, T_Scon, T_Scon_URLR,611.7, hit,1,0
655,5, T_Scon, T_Scon_DGRG,623.2, hit,2,0
656,5, T_Scon, T_Scon_DGRG,498.7, hit,2,0
657,5, T_Scon, T_Scon_URLR,426, hit,1,0
658,5, T_Scon, T_Scon_URLR,461.5, hit,1,0
659,5, T_Sinc, T_Sinc_UGRG,473, incorrect,1,1
660,5, T_Scon, T_Scon_DGRG,656.4, hit,2,0
661,5, T_Scon, T_Scon_DGRG,383.8, hit,2,0
662,5, T_Sinc, T_Sinc_DRLR,651.3, hit,1,0
663,5, T_Scon, T_Scon_DGRG,470.7, hit,2,0
664,5, T_Sinc, T_Sinc_UGRG,682.1, hit,2,0
665,5, T_Scon, T_Scon_DGRG,477.6, hit,2,0
666,5, T_Scon, T_Scon_DGRG,409.1, hit,2,0
667,5, T_Scon, T_Scon_URLR,360.4, hit,1,0
668,5, T_Scon, T_Scon_URLR,639.9, hit,1,0
669,5, T_Scon, T_Scon_DGRG,499.4, hit,2,0
670,5, T_Sinc, T_Sinc_DRLR,598.8, hit,1,0
671,5, T_Scon, T_Scon_DGRG,354.2, hit,2,0
672,5, T_Scon, T_Scon_DGRG,341.7, hit,2,0
673,5, T_Scon, T_Scon_URLR,385.1, hit,1,0
674,5, T_Sinc, T_Sinc_UGRG,1028.3, hit,2,2
675,5, T_Scon, T_Scon_URLR,475.2, hit,1,0
676,5, T_Scon, T_Scon_DGRG,306.5, hit,2,0
677,5, T_Scon, T_Scon_DGRG,478, hit,2,0
678,5, T_Scon, T_Scon_DGRG,409.5, hit,2,0
679,5, T_Sinc, T_Sinc_DRLR,320.8, hit,1,0
680,5, T_Sinc, T_Sinc_DRLR,356.3, incorrect,2,1
681,5, T_Scon, T_Scon_DGRG,347.8, hit,2,0
682,5, T_Scon, T_Scon_URLR,495.2, hit,1,0
683,5, T_Sinc, T_Sinc_UGRG,522.6, hit,2,0
684,5, T_Scon, T_Scon_DGRG,422.1, hit,2,0
685,5, T_Sinc, T_Sinc_UGRG,517.5, hit,2,0
686,5, T_Scon, T_Scon_DGRG,568.9, hit,2,0
687,5, T_Scon, T_Scon_DGRG,492.4, hit,2,0
688,5, T_Scon, T_Scon_URLR,403.8, hit,1,0
689,5, T_Scon, T_Scon_URLR,519.3, hit,1,0
690,5, T_Scon, T_Scon_URLR,538.7, hit,1,0
691,5, T_Sinc, T_Sinc_UGRG,510.2, hit,2,0
692,5, T_Sinc, T_Sinc_DRLR,469.6, hit,1,0
693,5, T_Sinc, T_Sinc_DRLR,497, hit,1,0
694,5, T_Scon, T_Scon_DGRG,460.5, hit,2,0
695,5, T_Sinc, T_Sinc_DRLR,495.9, hit,1,0
696,5, T_Scon, T_Scon_URLR,463.4, hit,1,0
697,5, T_Scon, T_Scon_URLR,634.8, hit,1,0
698,5, T_Scon, T_Scon_DGRG,746.2, hit,2,0
699,5, T_Scon, T_Scon_URLR,453.6, hit,1,0
700,5, T_Scon, T_Scon_DGRG,541.1, hit,2,0
701,5, T_Scon, T_Scon_DGRG,876.5, hit,2,2
702,5, T_Sinc, T_Sinc_DRLR,440, hit,1,0
703,5, T_Sinc, T_Sinc_DRLR,659.4, hit,1,0
704,5, T_Sinc, T_Sinc_DRLR,534.9, hit,1,0
705,5, T_Scon, T_Scon_DGRG,342.3, hit,2,0
706,5, T_Sinc, T_Sinc_DRLR,177.7, incorrect,2,1
707,5, T_Scon, T_Scon_URLR,305.2, incorrect,2,1
708,5, T_Sinc, T_Sinc_DRLR,644.6, hit,1,0
709,6, T_Scon, T_Scon_URLR,620.5, hit,1,0
710,6, T_Scon, T_Scon_URLR,539.9, hit,1,0
711,6, T_Scon, T_Scon_DGRG,391.4, hit,2,0
712,6, T_Scon, T_Scon_URLR,358.7, incorrect,2,1
713,6, T_Scon, T_Scon_DGRG,458.2, incorrect,1,1
714,6, T_Sinc, T_Sinc_UGRG,501.7, hit,2,0
715,6, T_Scon, T_Scon_DGRG,457.1, hit,2,0
716,6, T_Scon, T_Scon_DGRG,476.5, hit,2,0
717,6, T_Scon, T_Scon_DGRG,488, hit,2,0
718,6, T_Scon, T_Scon_DGRG,355.4, hit,2,0
719,6, T_Scon, T_Scon_DGRG,698.8, hit,2,0
720,6, T_Scon, T_Scon_DGRG,342.3, hit,2,0
721,6, T_Sinc, T_Sinc_UGRG,589.7, hit,2,0
722,6, T_Scon, T_Scon_URLR,489.1, hit,1,0
723,6, T_Scon, T_Scon_URLR,536.6, hit,1,0
724,6, T_Scon, T_Scon_DGRG,388, hit,2,0
725,6, T_Scon, T_Scon_URLR,471.5, hit,1,0
726,6, T_Scon, T_Scon_URLR,558.9, hit,1,0
727,6, T_Sinc, T_Sinc_UGRG,734.3, hit,2,0
728,6, T_Scon, T_Scon_URLR,429.8, hit,1,0
729,6, T_Scon, T_Scon_DGRG,393.2, hit,2,0
730,6, T_Sinc, T_Sinc_UGRG,824.7, incorrect,1,1
731,6, T_Scon, T_Scon_URLR,604.1, hit,1,0
732,6, T_Scon, T_Scon_DGRG,567.5, hit,2,0
733,6, T_Scon, T_Scon_DGRG,579, hit,2,0
734,6, T_Scon, T_Scon_DGRG,406.4, hit,2,0
735,6, T_Sinc, T_Sinc_UGRG,361.9, incorrect,1,1
736,6, T_Scon, T_Scon_DGRG,565.3, hit,2,0
737,6, T_Scon, T_Scon_URLR,656.8, hit,1,0
738,6, T_Scon, T_Scon_URLR,480.2, hit,1,0
739,6, T_Scon, T_Scon_DGRG,827.6, hit,2,2
740,6, T_Scon, T_Scon_DGRG,455.1, hit,2,0
741,6, T_Sinc, T_Sinc_DRLR,490.5, hit,1,0
742,6, T_Scon, T_Scon_DGRG,441.4, hit,2,0
743,6, T_Sinc, T_Sinc_DRLR,460.8, hit,1,0
744,6, T_Scon, T_Scon_URLR,1020, hit,1,2
745,6, T_Sinc, T_Sinc_DRLR,350.9, hit,1,0
746,6, T_Scon, T_Scon_URLR,418.3, hit,1,0
747,6, T_Scon, T_Scon_DGRG,349.7, hit,2,0
748,6, T_Sinc, T_Sinc_UGRG,345.2, incorrect,1,1
749,6, T_Scon, T_Scon_URLR,436.7, hit,1,0
750,6, T_Scon, T_Scon_URLR,456, hit,1,0
751,6, T_Scon, T_Scon_DGRG,543.5, hit,2,0
752,6, T_Scon, T_Scon_URLR,503, hit,1,0
753,6, T_Scon, T_Scon_DGRG,454.3, hit,2,0
754,6, T_Sinc, T_Sinc_UGRG,561.8, hit,2,0
755,6, T_Scon, T_Scon_DGRG,477.3, hit,2,0
756,6, T_Scon, T_Scon_URLR,492.6, hit,1,0
757,6, T_Scon, T_Scon_URLR,552.1, hit,1,0
758,6, T_Scon, T_Scon_URLR,491.6, hit,1,0
759,6, T_Scon, T_Scon_URLR,563, hit,1,0
760,6, T_Sinc, T_Sinc_DRLR,510.4, hit,1,0
761,6, T_Scon, T_Scon_DGRG,417.9, hit,2,0
762,6, T_Scon, T_Scon_DGRG,629.4, hit,2,0
763,6, T_Sinc, T_Sinc_DRLR,444.7, hit,1,0
764,6, T_Sinc, T_Sinc_DRLR,592.2, hit,1,0
765,6, T_Scon, T_Scon_URLR,539.7, hit,1,0
766,6, T_Scon, T_Scon_URLR,419, hit,1,0
767,6, T_Sinc, T_Sinc_UGRG,522.5, hit,2,0
768,6, T_Scon, T_Scon_DGRG,414, hit,2,0
769,6, T_Scon, T_Scon_DGRG,457.5, hit,2,0
770,6, T_Sinc, T_Sinc_DRLR,452.8, hit,1,0
771,6, T_Scon, T_Scon_URLR,476.3, hit,1,0
772,6, T_Sinc, T_Sinc_DRLR,475.8, hit,1,0
773,6, T_Scon, T_Scon_URLR,435.1, hit,1,0
774,6, T_Scon, T_Scon_DGRG,354.6, incorrect,1,1
775,6, T_Sinc, T_Sinc_UGRG,534.1, hit,2,0
776,6, T_Scon, T_Scon_DGRG,417.4, hit,2,0
777,6, T_Sinc, T_Sinc_UGRG,556.9, hit,2,0
778,6, T_Sinc, T_Sinc_UGRG,424.4, incorrect,1,1
779,6, T_Scon, T_Scon_DGRG,631.5, hit,2,0
780,6, T_Scon, T_Scon_DGRG,347, hit,2,0
781,6, T_Scon, T_Scon_DGRG,362.4, hit,2,0
782,6, T_Scon, T_Scon_DGRG,377.9, hit,2,0
783,6, T_Scon, T_Scon_URLR,433.2, hit,1,0
784,6, T_Scon, T_Scon_URLR,424.7, hit,1,0
785,6, T_Scon, T_Scon_DGRG,604.2, hit,2,0
786,6, T_Scon, T_Scon_DGRG,383.5, hit,2,0
787,6, T_Scon, T_Scon_URLR,455, hit,1,0
788,6, T_Scon, T_Scon_URLR,422.5, hit,1,0
789,6, T_Scon, T_Scon_URLR,689.9, hit,1,0
790,6, T_Scon, T_Scon_URLR,413.3, hit,1,0
791,6, T_Scon, T_Scon_URLR,432.7, hit,1,0
792,6, T_Sinc, T_Sinc_DRLR,540.2, hit,1,0
793,6, T_Scon, T_Scon_DGRG,423.7, hit,2,0
794,6, T_Scon, T_Scon_DGRG,491, hit,2,0
795,6, T_Scon, T_Scon_DGRG,646.5, hit,2,0
796,6, T_Scon, T_Scon_URLR,482, hit,1,0
797,6, T_Scon, T_Scon_URLR,425.3, hit,1,0
798,6, T_Scon, T_Scon_URLR,300.8, incorrect,2,1
799,6, T_Scon, T_Scon_URLR,452.3, hit,1,0
800,6, T_Scon, T_Scon_URLR,495.6, hit,1,0
801,6, T_Scon, T_Scon_DGRG,423.1, incorrect,1,1
802,6, T_Scon, T_Scon_DGRG,442.6, hit,2,0
803,6, T_Scon, T_Scon_DGRG,445.9, hit,2,0
804,6, T_Sinc, T_Sinc_DRLR,609.4, hit,1,0
805,6, T_Scon, T_Scon_URLR,516.9, hit,1,0
806,6, T_Scon, T_Scon_URLR,444.3, hit,1,0
807,6, T_Scon, T_Scon_URLR,611.7, hit,1,0
808,6, T_Scon, T_Scon_DGRG,567.2, hit,2,0
809,6, T_Sinc, T_Sinc_UGRG,602.6, hit,2,0
810,6, T_Sinc, T_Sinc_DRLR,430, hit,1,0
811,6, T_Scon, T_Scon_DGRG,673.5, hit,2,0
812,6, T_Scon, T_Scon_URLR,548.9, hit,1,0
813,6, T_Sinc, T_Sinc_DRLR,504.4, hit,1,0
814,6, T_Sinc, T_Sinc_DRLR,411.8, hit,1,0
815,6, T_Scon, T_Scon_URLR,514.5, hit,1,0
816,6, T_Sinc, T_Sinc_UGRG,857.8, hit,2,2
817,6, T_Scon, T_Scon_DGRG,473.3, hit,2,0
818,6, T_Sinc, T_Sinc_DRLR,436.8, hit,1,0
819,6, T_Scon, T_Scon_DGRG,440.1, hit,2,0
820,6, T_Sinc, T_Sinc_UGRG,819.6, hit,2,0
821,6, T_Scon, T_Scon_URLR,635.1, hit,1,0
822,6, T_Scon, T_Scon_DGRG,526.4, hit,2,0
823,6, T_Scon, T_Scon_URLR,449.9, hit,1,0
824,6, T_Sinc, T_Sinc_DRLR,469.4, hit,1,0
825,6, T_Scon, T_Scon_URLR,692.7, hit,1,0
826,6, T_Scon, T_Scon_DGRG,472.2, hit,2,0
827,6, T_Scon, T_Scon_URLR,515.7, hit,1,0
828,6, T_Scon, T_Scon_URLR,431.1, hit,1,0
829,6, T_Scon, T_Scon_DGRG,466.5, hit,2,0
830,6, T_Scon, T_Scon_DGRG,566, hit,2,0
831,6, T_Scon, T_Scon_DGRG,465.4, hit,2,0
832,6, T_Sinc, T_Sinc_UGRG,396.8, incorrect,1,1
833,6, T_Sinc, T_Sinc_UGRG,888.3, hit,2,2
834,6, T_Scon, T_Scon_DGRG,435.8, hit,2,0
835,6, T_Scon, T_Scon_URLR,347.2, hit,1,0
836,6, T_Sinc, T_Sinc_DRLR,438.6, hit,1,0
837,6, T_Scon, T_Scon_DGRG,482.1, hit,2,0
838,6, T_Scon, T_Scon_DGRG,409.5, hit,2,0
839,6, T_Sinc, T_Sinc_UGRG,528.9, hit,2,0
840,6, T_Scon, T_Scon_URLR,436.4, hit,1,0
841,6, T_Scon, T_Scon_URLR,447.8, hit,1,0
842,6, T_Scon, T_Scon_URLR,507.2, hit,1,0
843,6, T_Scon, T_Scon_DGRG,382.7, hit,2,0
844,6, T_Scon, T_Scon_DGRG,510.1, hit,2,0
845,6, T_Scon, T_Scon_DGRG,425.6, hit,2,0
846,6, T_Scon, T_Scon_URLR,501, hit,1,0
847,6, T_Sinc, T_Sinc_DRLR,572.4, hit,1,0
848,6, T_Scon, T_Scon_URLR,403.9, hit,1,0
849,6, T_Scon, T_Scon_URLR,435.3, hit,1,0
850,7, T_Sinc, T_Sinc_DRLR,661.8, hit,1,0
851,7, T_Scon, T_Scon_URLR,401.2, hit,1,0
852,7, T_Scon, T_Scon_URLR,284.6, hit,1,0
853,7, T_Scon, T_Scon_URLR,296.1, hit,1,0
854,7, T_Sinc, T_Sinc_DRLR,371.4, incorrect,2,1
855,7, T_Sinc, T_Sinc_UGRG,526.9, hit,2,0
856,7, T_Sinc, T_Sinc_DRLR,374.4, hit,1,0
857,7, T_Sinc, T_Sinc_UGRG,625.8, hit,2,0
858,7, T_Sinc, T_Sinc_UGRG,573.2, hit,2,0
859,7, T_Scon, T_Scon_DGRG,440.7, hit,2,0
860,7, T_Sinc, T_Sinc_UGRG,512.2, hit,2,0
861,7, T_Sinc, T_Sinc_DRLR,435.5, hit,1,0
862,7, T_Sinc, T_Sinc_DRLR,303, hit,1,0
863,7, T_Scon, T_Scon_URLR,362.4, hit,1,0
864,7, T_Scon, T_Scon_DGRG,477.8, hit,2,0
865,7, T_Scon, T_Scon_DGRG,401.3, hit,2,0
866,7, T_Sinc, T_Sinc_DRLR,428.8, hit,1,0
867,7, T_Sinc, T_Sinc_DRLR,384.2, hit,1,0
868,7, T_Sinc, T_Sinc_UGRG,355.6, hit,2,0
869,7, T_Sinc, T_Sinc_DRLR,443.1, hit,1,0
870,7, T_Sinc, T_Sinc_DRLR,382.6, hit,1,0
871,7, T_Sinc, T_Sinc_UGRG,553.9, hit,2,0
872,7, T_Sinc, T_Sinc_DRLR,389.4, hit,1,0
873,7, T_Scon, T_Scon_DGRG,464.9, hit,2,0
874,7, T_Sinc, T_Sinc_UGRG,468.3, hit,2,0
875,7, T_Sinc, T_Sinc_UGRG,423.7, hit,2,0
876,7, T_Sinc, T_Sinc_UGRG,439.2, hit,2,0
877,7, T_Sinc, T_Sinc_UGRG,346.6, hit,2,0
878,7, T_Scon, T_Scon_URLR,438, hit,1,0
879,7, T_Sinc, T_Sinc_DRLR,393.5, hit,1,0
880,7, T_Sinc, T_Sinc_UGRG,361, hit,2,0
881,7, T_Sinc, T_Sinc_DRLR,436.3, hit,1,0
882,7, T_Scon, T_Scon_DGRG,535.8, hit,2,0
883,7, T_Sinc, T_Sinc_UGRG,459.2, hit,2,0
884,7, T_Sinc, T_Sinc_UGRG,470.6, hit,2,0
885,7, T_Sinc, T_Sinc_DRLR,362.1, hit,1,0
886,7, T_Sinc, T_Sinc_DRLR,573.3, hit,1,0
887,7, T_Sinc, T_Sinc_DRLR,412.7, hit,1,0
888,7, T_Sinc, T_Sinc_DRLR,384.1, hit,1,0
889,7, T_Sinc, T_Sinc_UGRG,687.6, hit,2,0
890,7, T_Sinc, T_Sinc_DRLR,539, hit,1,0
891,7, T_Sinc, T_Sinc_DRLR,534.4, hit,1,0
892,7, T_Scon, T_Scon_URLR,473.9, hit,1,0
893,7, T_Sinc, T_Sinc_UGRG,521.4, hit,2,0
894,7, T_Sinc, T_Sinc_DRLR,492.7, hit,1,0
895,7, T_Sinc, T_Sinc_UGRG,440.2, hit,2,0
896,7, T_Sinc, T_Sinc_UGRG,739.7, incorrect,1,1
897,7, T_Sinc, T_Sinc_UGRG,767.1, hit,2,0
898,7, T_Sinc, T_Sinc_UGRG,738.5, hit,2,0
899,7, T_Scon, T_Scon_URLR,598, hit,1,0
900,7, T_Sinc, T_Sinc_DRLR,509.3, hit,1,0
901,7, T_Sinc, T_Sinc_DRLR,500.8, hit,1,0
902,7, T_Sinc, T_Sinc_DRLR,460.3, hit,1,0
903,7, T_Sinc, T_Sinc_UGRG,423.7, hit,2,0
904,7, T_Sinc, T_Sinc_UGRG,591.1, hit,2,0
905,7, T_Scon, T_Scon_DGRG,494.6, hit,2,0
906,7, T_Sinc, T_Sinc_UGRG,518, hit,2,0
907,7, T_Sinc, T_Sinc_UGRG,421.4, hit,2,0
908,7, T_Sinc, T_Sinc_UGRG,428.9, hit,2,0
909,7, T_Scon, T_Scon_URLR,480.4, hit,1,0
910,7, T_Sinc, T_Sinc_UGRG,759.7, hit,2,0
911,7, T_Sinc, T_Sinc_UGRG,567.2, hit,2,0
912,7, T_Scon, T_Scon_DGRG,730.7, hit,2,0
913,7, T_Scon, T_Scon_DGRG,442.1, hit,2,0
914,7, T_Sinc, T_Sinc_UGRG,393.5, hit,2,0
915,7, T_Sinc, T_Sinc_UGRG,525, hit,2,0
916,7, T_Sinc, T_Sinc_DRLR,480.4, hit,1,0
917,7, T_Sinc, T_Sinc_DRLR,451.8, hit,1,0
918,7, T_Sinc, T_Sinc_DRLR,407.2, hit,1,0
919,7, T_Sinc, T_Sinc_UGRG,674.7, hit,2,0
920,7, T_Sinc, T_Sinc_DRLR,506.2, hit,1,0
921,7, T_Sinc, T_Sinc_UGRG,293.6, hit,2,0
922,7, T_Sinc, T_Sinc_UGRG,456.8, hit,2,0
923,7, T_Sinc, T_Sinc_DRLR,392.2, hit,1,0
924,7, T_Scon, T_Scon_DGRG,319.6, incorrect,1,1
925,7, T_Scon, T_Scon_DGRG,519.1, hit,2,0
926,7, T_Scon, T_Scon_DGRG,338.5, hit,2,0
927,7, T_Sinc, T_Sinc_DRLR,349.9, hit,1,0
928,7, T_Sinc, T_Sinc_DRLR,397.4, hit,1,0
929,7, T_Sinc, T_Sinc_UGRG,316.8, hit,2,0
930,7, T_Sinc, T_Sinc_UGRG,352.3, hit,2,0
931,7, T_Scon, T_Scon_URLR,411.7, hit,1,0
932,7, T_Sinc, T_Sinc_UGRG,271.1, hit,2,0
933,7, T_Sinc, T_Sinc_DRLR,402.6, hit,1,0
934,7, T_Sinc, T_Sinc_UGRG,358, hit,2,0
935,7, T_Sinc, T_Sinc_DRLR,321.4, hit,1,0
936,7, T_Sinc, T_Sinc_DRLR,524.9, hit,1,0
937,7, T_Sinc, T_Sinc_UGRG,416.3, hit,2,0
938,7, T_Sinc, T_Sinc_DRLR,451.7, hit,1,0
939,7, T_Sinc, T_Sinc_DRLR,455.2, hit,1,0
940,7, T_Scon, T_Scon_URLR,462.6, hit,1,0
941,7, T_Sinc, T_Sinc_DRLR,538, hit,1,0
942,7, T_Sinc, T_Sinc_UGRG,549.5, hit,2,0
943,7, T_Sinc, T_Sinc_UGRG,361, hit,2,0
944,7, T_Sinc, T_Sinc_UGRG,308.3, hit,2,0
945,7, T_Sinc, T_Sinc_UGRG,295.8, hit,2,0
946,7, T_Sinc, T_Sinc_UGRG,431.2, hit,2,0
947,7, T_Sinc, T_Sinc_DRLR,366.7, hit,1,0
948,7, T_Sinc, T_Sinc_UGRG,234.1, hit,2,0
949,7, T_Sinc, T_Sinc_UGRG,497.6, hit,2,0
950,7, T_Sinc, T_Sinc_DRLR,265, hit,1,0
951,7, T_Sinc, T_Sinc_DRLR,868.4, hit,1,2
952,7, T_Sinc, T_Sinc_DRLR,267.9, incorrect,2,1
953,7, T_Sinc, T_Sinc_UGRG,339.3, hit,2,0
954,7, T_Sinc, T_Sinc_UGRG,570.7, hit,2,0
955,7, T_Sinc, T_Sinc_DRLR,402.2, hit,1,0
956,7, T_Scon, T_Scon_DGRG,633, hit,2,0
957,7, T_Sinc, T_Sinc_DRLR,584.3, hit,1,0
958,7, T_Sinc, T_Sinc_UGRG,451.7, hit,2,0
959,7, T_Scon, T_Scon_URLR,527.1, hit,1,0
960,7, T_Sinc, T_Sinc_DRLR,474.5, hit,1,0
961,7, T_Sinc, T_Sinc_DRLR,406, hit,1,0
962,7, T_Sinc, T_Sinc_DRLR,405.5, hit,1,0
963,7, T_Sinc, T_Sinc_DRLR,436.9, hit,1,0
964,7, T_Sinc, T_Sinc_DRLR,456.3, hit,1,0
965,7, T_Scon, T_Scon_DGRG,355.8, incorrect,1,1
966,7, T_Scon, T_Scon_URLR,539.2, hit,1,0
967,7, T_Scon, T_Scon_URLR,394.6, hit,1,0
968,7, T_Scon, T_Scon_URLR,418.1, hit,1,0
969,7, T_Scon, T_Scon_DGRG,301.6, hit,2,0
970,7, T_Sinc, T_Sinc_DRLR,440.9, hit,1,0
971,7, T_Sinc, T_Sinc_UGRG,604.4, hit,2,0
972,7, T_Sinc, T_Sinc_DRLR,487.9, hit,1,0
973,7, T_Scon, T_Scon_DGRG,419.2, hit,2,0
974,7, T_Scon, T_Scon_DGRG,506.7, hit,2,0
975,7, T_Sinc, T_Sinc_DRLR,462.2, hit,1,0
976,7, T_Sinc, T_Sinc_DRLR,505.5, hit,1,0
977,7, T_Sinc, T_Sinc_DRLR,325, hit,1,0
978,7, T_Sinc, T_Sinc_UGRG,388.5, hit,2,0
979,7, T_Sinc, T_Sinc_DRLR,399.9, hit,1,0
980,7, T_Scon, T_Scon_URLR,507.3, hit,1,0
981,7, T_Scon, T_Scon_DGRG,478.8, hit,2,0
982,7, T_Sinc, T_Sinc_DRLR,430.2, hit,1,0
983,7, T_Sinc, T_Sinc_UGRG,349.7, hit,2,0
984,7, T_Scon, T_Scon_URLR,437.1, hit,1,0
985,7, T_Scon, T_Scon_URLR,512.6, hit,1,0
986,7, T_Scon, T_Scon_URLR,459.9, hit,1,0
987,7, T_Sinc, T_Sinc_UGRG,287.4, hit,2,0
988,7, T_Sinc, T_Sinc_UGRG,370.9, hit,2,0
989,7, T_Sinc, T_Sinc_UGRG,606.2, hit,2,0
990,7, T_Sinc, T_Sinc_UGRG,553.7, hit,2,0
991,7, T_Sinc, T_Sinc_DRLR,437.2, hit,1,0
992,7, T_Scon, T_Scon_DGRG,324.7, hit,2,0
993,8, T_Sinc, T_Sinc_UGRG,630.6, hit,2,0
994,8, T_Sinc, T_Sinc_UGRG,370, hit,2,0
995,8, T_Sinc, T_Sinc_DRLR,293.5, hit,1,0
996,8, T_Sinc, T_Sinc_DRLR,384.9, hit,1,0
997,8, T_Sinc, T_Sinc_UGRG,236.3, hit,2,0
998,8, T_Sinc, T_Sinc_DRLR,391.8, hit,1,0
999,8, T_Scon, T_Scon_URLR,299.2, incorrect,2,1
1000,8, T_Sinc, T_Sinc_UGRG,490.6, hit,2,0
1001,8, T_Sinc, T_Sinc_DRLR,486.1, hit,1,0
1002,8, T_Scon, T_Scon_URLR,569.5, hit,1,0
1003,8, T_Scon, T_Scon_DGRG,1028.9, hit,2,2
1004,8, T_Sinc, T_Sinc_DRLR,496.4, hit,1,0
1005,8, T_Sinc, T_Sinc_DRLR,455.8, hit,1,0
1006,8, T_Scon, T_Scon_URLR,587.3, hit,1,0
1007,8, T_Scon, T_Scon_URLR,458.7, hit,1,0
1008,8, T_Sinc, T_Sinc_DRLR,310.1, hit,1,0
1009,8, T_Sinc, T_Sinc_DRLR,285.6, incorrect,2,1
1010,8, T_Sinc, T_Sinc_DRLR,169, incorrect,2,1
1011,8, T_Sinc, T_Sinc_DRLR,620.4, hit,1,0
1012,8, T_Sinc, T_Sinc_UGRG,711.9, hit,2,0
1013,8, T_Sinc, T_Sinc_DRLR,427.3, hit,1,0
1014,8, T_Sinc, T_Sinc_UGRG,326.7, hit,2,0
1015,8, T_Sinc, T_Sinc_UGRG,462.2, hit,2,0
1016,8, T_Scon, T_Scon_URLR,477.7, hit,1,0
1017,8, T_Sinc, T_Sinc_DRLR,381, hit,1,0
1018,8, T_Sinc, T_Sinc_UGRG,464.5, hit,2,0
1019,8, T_Sinc, T_Sinc_DRLR,492, hit,1,0
1020,8, T_Sinc, T_Sinc_DRLR,383.3, hit,1,0
1021,8, T_Sinc, T_Sinc_UGRG,466.8, hit,2,0
1022,8, T_Scon, T_Scon_URLR,422.3, hit,1,0
1023,8, T_Sinc, T_Sinc_UGRG,493.7, hit,2,0
1024,8, T_Sinc, T_Sinc_UGRG,369.1, hit,2,0
1025,8, T_Sinc, T_Sinc_UGRG,468.6, hit,2,0
1026,8, T_Sinc, T_Sinc_UGRG,368.1, hit,2,0
1027,8, T_Sinc, T_Sinc_UGRG,359.4, hit,2,0
1028,8, T_Sinc, T_Sinc_DRLR,406.9, hit,1,0
1029,8, T_Sinc, T_Sinc_DRLR,794.1, hit,1,0
1030,8, T_Sinc, T_Sinc_UGRG,437.4, hit,2,0
1031,8, T_Sinc, T_Sinc_UGRG,312.9, hit,2,0
1032,8, T_Sinc, T_Sinc_DRLR,348.4, hit,1,0
1033,8, T_Sinc, T_Sinc_DRLR,439.7, hit,1,0
1034,8, T_Scon, T_Scon_DGRG,307.2, incorrect,1,1
1035,8, T_Sinc, T_Sinc_UGRG,514.7, hit,2,0
1036,8, T_Scon, T_Scon_DGRG,386.2, hit,2,0
1037,8, T_Sinc, T_Sinc_DRLR,445.5, hit,1,0
1038,8, T_Sinc, T_Sinc_DRLR,389, hit,1,0
1039,8, T_Scon, T_Scon_URLR,444.5, hit,1,0
1040,8, T_Sinc, T_Sinc_UGRG,595.8, hit,2,0
1041,8, T_Sinc, T_Sinc_DRLR,391.3, hit,1,0
1042,8, T_Scon, T_Scon_URLR,506.8, hit,1,0
1043,8, T_Sinc, T_Sinc_UGRG,374.1, hit,2,0
1044,8, T_Sinc, T_Sinc_DRLR,401.6, hit,1,0
1045,8, T_Sinc, T_Sinc_UGRG,509.1, hit,2,0
1046,8, T_Sinc, T_Sinc_DRLR,504.5, hit,1,0
1047,8, T_Sinc, T_Sinc_DRLR,523.9, hit,1,0
1048,8, T_Scon, T_Scon_DGRG,423.4, hit,2,0
1049,8, T_Sinc, T_Sinc_UGRG,642.8, hit,2,0
1050,8, T_Scon, T_Scon_URLR,446.2, hit,1,0
1051,8, T_Sinc, T_Sinc_DRLR,421.7, hit,1,0
1052,8, T_Sinc, T_Sinc_UGRG,357.2, hit,2,0
1053,8, T_Sinc, T_Sinc_UGRG,420.5, hit,2,0
1054,8, T_Scon, T_Scon_DGRG,504, hit,2,0
1055,8, T_Sinc, T_Sinc_DRLR,363.5, hit,1,0
1056,8, T_Sinc, T_Sinc_DRLR,510.9, hit,1,0
1057,8, T_Sinc, T_Sinc_UGRG,442.3, hit,2,0
1058,8, T_Sinc, T_Sinc_DRLR,453.8, hit,1,0
1059,8, T_Scon, T_Scon_DGRG,381.2, hit,2,0
1060,8, T_Sinc, T_Sinc_UGRG,484.6, hit,2,0
1061,8, T_Scon, T_Scon_URLR,484.1, hit,1,0
1062,8, T_Sinc, T_Sinc_UGRG,615.5, hit,2,0
1063,8, T_Sinc, T_Sinc_UGRG,674.9, hit,2,0
1064,8, T_Scon, T_Scon_DGRG,598.4, hit,2,0
1065,8, T_Sinc, T_Sinc_UGRG,553.6, hit,2,0
1066,8, T_Sinc, T_Sinc_DRLR,421, hit,1,0
1067,8, T_Scon, T_Scon_URLR,576.4, hit,1,0
1068,8, T_Sinc, T_Sinc_UGRG,467.9, hit,2,0
1069,8, T_Sinc, T_Sinc_DRLR,411.2, hit,1,0
1070,8, T_Sinc, T_Sinc_DRLR,382.7, hit,1,0
1071,8, T_Scon, T_Scon_DGRG,314.2, hit,2,0
1072,8, T_Scon, T_Scon_DGRG,405.7, hit,2,0
1073,8, T_Sinc, T_Sinc_UGRG,377, hit,2,0
1074,8, T_Scon, T_Scon_URLR,400.5, hit,1,0
1075,8, T_Sinc, T_Sinc_DRLR,404, hit,1,0
1076,8, T_Sinc, T_Sinc_DRLR,415.4, hit,1,0
1077,8, T_Sinc, T_Sinc_DRLR,402.8, hit,1,0
1078,8, T_Scon, T_Scon_DGRG,374.3, hit,2,0
1079,8, T_Sinc, T_Sinc_DRLR,497.7, hit,1,0
1080,8, T_Sinc, T_Sinc_UGRG,353.1, hit,2,0
1081,8, T_Sinc, T_Sinc_DRLR,344.6, hit,1,0
1082,8, T_Sinc, T_Sinc_DRLR,364, hit,1,0
1083,8, T_Sinc, T_Sinc_UGRG,355.4, hit,2,0
1084,8, T_Sinc, T_Sinc_DRLR,270.9, hit,1,0
1085,8, T_Scon, T_Scon_URLR,306.4, hit,1,0
1086,8, T_Sinc, T_Sinc_DRLR,345.7, hit,1,0
1087,8, T_Scon, T_Scon_URLR,525.2, hit,1,0
1088,8, T_Sinc, T_Sinc_DRLR,508.7, hit,1,0
1089,8, T_Sinc, T_Sinc_UGRG,404.1, hit,2,0
1090,8, T_Scon, T_Scon_DGRG,371.5, hit,2,0
1091,8, T_Sinc, T_Sinc_UGRG,479, hit,2,0
1092,8, T_Sinc, T_Sinc_UGRG,682.4, hit,2,0
1093,8, T_Scon, T_Scon_DGRG,393.8, hit,2,0
1094,8, T_Sinc, T_Sinc_UGRG,481.3, hit,2,0
1095,8, T_Sinc, T_Sinc_DRLR,368.7, hit,1,0
1096,8, T_Sinc, T_Sinc_UGRG,620.2, hit,2,0
1097,8, T_Sinc, T_Sinc_UGRG,439.6, hit,2,0
1098,8, T_Scon, T_Scon_DGRG,331, hit,2,0
1099,8, T_Scon, T_Scon_DGRG,334.5, hit,2,0
1100,8, T_Sinc, T_Sinc_DRLR,169.9, incorrect,2,1
1101,8, T_Scon, T_Scon_DGRG,721.2, hit,2,0
1102,8, T_Sinc, T_Sinc_DRLR,424.5, hit,1,0
1103,8, T_Scon, T_Scon_URLR,523.9, hit,1,0
1104,8, T_Sinc, T_Sinc_UGRG,463.3, hit,2,0
1105,8, T_Sinc, T_Sinc_UGRG,850.8, incorrect,1,1
1106,8, T_Sinc, T_Sinc_UGRG,538.3, hit,2,0
1107,8, T_Sinc, T_Sinc_UGRG,897.7, hit,2,2
1108,8, T_Sinc, T_Sinc_UGRG,353.1, hit,2,0
1109,8, T_Scon, T_Scon_DGRG,404.6, hit,2,0
1110,8, T_Sinc, T_Sinc_UGRG,460, hit,2,0
1111,8, T_Sinc, T_Sinc_UGRG,383.4, incorrect,1,1
1112,8, T_Scon, T_Scon_DGRG,506.9, hit,2,0
1113,8, T_Sinc, T_Sinc_UGRG,502.3, hit,2,0
1114,8, T_Sinc, T_Sinc_UGRG,513.7, hit,2,0
1115,8, T_Scon, T_Scon_DGRG,369.2, hit,2,0
1116,8, T_Sinc, T_Sinc_DRLR,516.7, hit,1,0
1117,8, T_Sinc, T_Sinc_DRLR,336.1, hit,1,0
1118,8, T_Sinc, T_Sinc_UGRG,459.5, hit,2,0
1119,8, T_Sinc, T_Sinc_UGRG,967, hit,2,2
1120,8, T_Scon, T_Scon_URLR,458.4, hit,1,0
1121,8, T_Sinc, T_Sinc_DRLR,389.9, incorrect,2,1
1122,8, T_Sinc, T_Sinc_DRLR,901.3, hit,1,2
1123,8, T_Sinc, T_Sinc_DRLR,392.7, hit,1,0
1124,8, T_Sinc, T_Sinc_DRLR,484.2, hit,1,0
1125,8, T_Sinc, T_Sinc_DRLR,383.7, hit,1,0
1126,8, T_Sinc, T_Sinc_DRLR,343, hit,1,0
1127,8, T_Sinc, T_Sinc_DRLR,310.5, hit,1,0
1128,8, T_Sinc, T_Sinc_UGRG,738, hit,2,0
1129,8, T_Sinc, T_Sinc_UGRG,465.4, hit,2,0
1130,8, T_Sinc, T_Sinc_DRLR,592.8, hit,1,0
1131,8, T_Sinc, T_Sinc_UGRG,532.3, hit,2,0
1132,8, T_Sinc, T_Sinc_DRLR,407.8, hit,1,0
1133,8, T_Sinc, T_Sinc_UGRG,627.1, hit,2,0
1134,8, T_Sinc, T_Sinc_UGRG,498.6, hit,2,0
1135,8, T_Scon, T_Scon_URLR,486.1, hit,1,0
1136,8, T_Scon, T_Scon_URLR,565.4, hit,1,0
1137,9, T_Sinc, T_Sinc_UGRG,688.6, hit,2,0
1138,9, T_Sinc, T_Sinc_UGRG,472, hit,2,0
1139,9, T_Sinc, T_Sinc_UGRG,463.4, hit,2,0
1140,9, T_Sinc, T_Sinc_UGRG,394.8, hit,2,0
1141,9, T_Sinc, T_Sinc_UGRG,338.3, hit,2,0
1142,9, T_Scon, T_Scon_DGRG,317.7, hit,2,0
1143,9, T_Scon, T_Scon_DGRG,361.1, hit,2,0
1144,9, T_Sinc, T_Sinc_DRLR,332.6, hit,1,0
1145,9, T_Sinc, T_Sinc_DRLR,336, hit,1,0
1146,9, T_Sinc, T_Sinc_DRLR,291.5, hit,1,0
1147,9, T_Scon, T_Scon_DGRG,282.9, hit,2,0
1148,9, T_Sinc, T_Sinc_DRLR,334.4, hit,1,0
1149,9, T_Sinc, T_Sinc_UGRG,353.8, hit,2,0
1150,9, T_Sinc, T_Sinc_UGRG,389.2, hit,2,0
1151,9, T_Sinc, T_Sinc_UGRG,352.7, hit,2,0
1152,9, T_Scon, T_Scon_URLR,400.1, hit,1,0
1153,9, T_Sinc, T_Sinc_DRLR,347.5, hit,1,0
1154,9, T_Sinc, T_Sinc_DRLR,595, hit,1,0
1155,9, T_Sinc, T_Sinc_DRLR,466.4, hit,1,0
1156,9, T_Sinc, T_Sinc_UGRG,525.8, hit,2,0
1157,9, T_Sinc, T_Sinc_DRLR,409.3, hit,1,0
1158,9, T_Sinc, T_Sinc_UGRG,552.8, hit,2,0
1159,9, T_Sinc, T_Sinc_UGRG,460.2, hit,2,0
1160,9, T_Sinc, T_Sinc_UGRG,431.6, hit,2,0
1161,9, T_Sinc, T_Sinc_UGRG,523.1, hit,2,0
1162,9, T_Scon, T_Scon_URLR,462.5, hit,1,0
1163,9, T_Sinc, T_Sinc_UGRG,513.9, hit,2,0
1164,9, T_Sinc, T_Sinc_UGRG,697.4, hit,2,0
1165,9, T_Sinc, T_Sinc_DRLR,460.8, hit,1,0
1166,9, T_Sinc, T_Sinc_UGRG,804.3, hit,2,0
1167,9, T_Sinc, T_Sinc_DRLR,495.7, hit,1,0
1168,9, T_Scon, T_Scon_DGRG,483.1, hit,2,0
1169,9, T_Scon, T_Scon_URLR,406.6, hit,1,0
1170,9, T_Sinc, T_Sinc_DRLR,586, hit,1,0
1171,9, T_Sinc, T_Sinc_DRLR,425.4, hit,1,0
1172,9, T_Sinc, T_Sinc_DRLR,372.9, hit,1,0
1173,9, T_Sinc, T_Sinc_DRLR,660.1, hit,1,0
1174,9, T_Scon, T_Scon_DGRG,643.5, hit,2,0
1175,9, T_Sinc, T_Sinc_UGRG,398.9, hit,2,0
1176,9, T_Sinc, T_Sinc_DRLR,382.4, hit,1,0
1177,9, T_Sinc, T_Sinc_UGRG,401.8, hit,2,0
1178,9, T_Scon, T_Scon_DGRG,573.2, hit,2,0
1179,9, T_Sinc, T_Sinc_UGRG,428.7, hit,2,0
1180,9, T_Sinc, T_Sinc_DRLR,240.1, incorrect,2,1
1181,9, T_Sinc, T_Sinc_UGRG,319.5, hit,2,0
1182,9, T_Sinc, T_Sinc_UGRG,443, hit,2,0
1183,9, T_Sinc, T_Sinc_UGRG,554.4, hit,2,0
1184,9, T_Sinc, T_Sinc_DRLR,349.9, hit,1,0
1185,9, T_Scon, T_Scon_DGRG,417.3, incorrect,1,1
1186,9, T_Sinc, T_Sinc_DRLR,512.8, hit,1,0
1187,9, T_Sinc, T_Sinc_UGRG,404.2, hit,2,0
1188,9, T_Sinc, T_Sinc_DRLR,443.7, hit,1,0
1189,9, T_Sinc, T_Sinc_UGRG,419.1, hit,2,0
1190,9, T_Sinc, T_Sinc_DRLR,466.5, hit,1,0
1191,9, T_Scon, T_Scon_DGRG,374, hit,2,0
1192,9, T_Sinc, T_Sinc_DRLR,397.4, hit,1,0
1193,9, T_Sinc, T_Sinc_UGRG,508.8, hit,2,0
1194,9, T_Sinc, T_Sinc_UGRG,456.3, hit,2,0
1195,9, T_Sinc, T_Sinc_DRLR,419.7, hit,1,0
1196,9, T_Scon, T_Scon_URLR,531.1, hit,1,0
1197,9, T_Sinc, T_Sinc_DRLR,510.5, hit,1,0
1198,9, T_Sinc, T_Sinc_UGRG,458, hit,2,0
1199,9, T_Sinc, T_Sinc_DRLR,429.5, hit,1,0
1200,9, T_Sinc, T_Sinc_DRLR,360.9, incorrect,2,1
1201,9, T_Sinc, T_Sinc_UGRG,472.3, hit,2,0
1202,9, T_Sinc, T_Sinc_DRLR,695.8, hit,1,0
1203,9, T_Sinc, T_Sinc_UGRG,719.2, hit,2,0
1204,9, T_Sinc, T_Sinc_DRLR,442.6, hit,1,0
1205,9, T_Scon, T_Scon_URLR,558.1, hit,1,0
1206,9, T_Sinc, T_Sinc_UGRG,713.5, hit,2,0
1207,9, T_Sinc, T_Sinc_DRLR,436.9, hit,1,0
1208,9, T_Scon, T_Scon_DGRG,372.4, hit,2,0
1209,9, T_Sinc, T_Sinc_UGRG,1335.6, hit,2,2
1210,9, T_Sinc, T_Sinc_DRLR,415, hit,1,0
1211,9, T_Scon, T_Scon_DGRG,426.4, hit,2,0
1212,9, T_Sinc, T_Sinc_UGRG,425.9, hit,2,0
1213,9, T_Scon, T_Scon_URLR,385.3, hit,1,0
1214,9, T_Sinc, T_Sinc_DRLR,372.7, hit,1,0
1215,9, T_Sinc, T_Sinc_UGRG,812.2, hit,2,0
1216,9, T_Sinc, T_Sinc_DRLR,391.7, hit,1,0
1217,9, T_Sinc, T_Sinc_UGRG,427, hit,2,0
1218,9, T_Sinc, T_Sinc_UGRG,406.5, incorrect,1,1
1219,9, T_Scon, T_Scon_URLR,498, hit,1,0
1220,9, T_Sinc, T_Sinc_DRLR,501.4, hit,1,0
1221,9, T_Sinc, T_Sinc_UGRG,664.8, hit,2,0
1222,9, T_Scon, T_Scon_URLR,444.3, hit,1,0
1223,9, T_Sinc, T_Sinc_DRLR,591.7, hit,1,0
1224,9, T_Sinc, T_Sinc_UGRG,459.1, incorrect,1,1
1225,9, T_Sinc, T_Sinc_UGRG,442.6, hit,2,0
1226,9, T_Scon, T_Scon_DGRG,406.1, hit,2,0
1227,9, T_Sinc, T_Sinc_DRLR,461.5, hit,1,0
1228,9, T_Sinc, T_Sinc_UGRG,448.9, hit,2,0
1229,9, T_Scon, T_Scon_DGRG,580.4, hit,2,0
1230,9, T_Scon, T_Scon_DGRG,359.8, hit,2,0
1231,9, T_Sinc, T_Sinc_DRLR,447.2, hit,1,0
1232,9, T_Sinc, T_Sinc_UGRG,490.7, hit,2,0
1233,9, T_Sinc, T_Sinc_DRLR,586.1, hit,1,0
1234,9, T_Scon, T_Scon_URLR,525.5, hit,1,0
1235,9, T_Sinc, T_Sinc_UGRG,433, hit,2,0
1236,9, T_Sinc, T_Sinc_DRLR,324.4, hit,1,0
1237,9, T_Sinc, T_Sinc_DRLR,479.8, hit,1,0
1238,9, T_Sinc, T_Sinc_UGRG,851.3, hit,2,2
1239,9, T_Sinc, T_Sinc_DRLR,490.8, hit,1,0
1240,9, T_Scon, T_Scon_URLR,486.1, hit,1,0
1241,9, T_Sinc, T_Sinc_UGRG,681.6, hit,2,0
1242,9, T_Sinc, T_Sinc_DRLR,373.1, hit,1,0
1243,9, T_Sinc, T_Sinc_DRLR,472.5, hit,1,0
1244,9, T_Sinc, T_Sinc_UGRG,451.9, incorrect,1,1
1245,9, T_Scon, T_Scon_URLR,843.1, hit,1,2
1246,9, T_Sinc, T_Sinc_UGRG,510.5, hit,2,0
1247,9, T_Sinc, T_Sinc_UGRG,394, hit,2,0
1248,9, T_Sinc, T_Sinc_UGRG,389.4, hit,2,0
1249,9, T_Sinc, T_Sinc_DRLR,428.9, hit,1,0
1250,9, T_Sinc, T_Sinc_UGRG,416.3, hit,2,0
1251,9, T_Scon, T_Scon_URLR,511.7, hit,1,0
1252,9, T_Scon, T_Scon_DGRG,807.1, hit,2,2
1253,9, T_Sinc, T_Sinc_DRLR,514.6, hit,1,0
1254,9, T_Scon, T_Scon_URLR,270.1, incorrect,2,1
1255,9, T_Sinc, T_Sinc_UGRG,341.5, hit,2,0
1256,9, T_Scon, T_Scon_URLR,480.9, hit,1,0
1257,9, T_Sinc, T_Sinc_DRLR,468.3, hit,1,0
1258,9, T_Sinc, T_Sinc_UGRG,655.8, hit,2,0
1259,9, T_Sinc, T_Sinc_DRLR,819.2, hit,1,0
1260,9, T_Sinc, T_Sinc_DRLR,470.6, hit,1,0
1261,9, T_Scon, T_Scon_DGRG,362.1, hit,2,0
1262,9, T_Scon, T_Scon_URLR,465.6, hit,1,0
1263,9, T_Scon, T_Scon_URLR,820.9, hit,1,2
1264,9, T_Sinc, T_Sinc_DRLR,484.4, hit,1,0
1265,9, T_Sinc, T_Sinc_DRLR,551.9, hit,1,0
1266,9, T_Sinc, T_Sinc_DRLR,491.3, hit,1,0
1267,9, T_Scon, T_Scon_URLR,478.7, hit,1,0
1268,9, T_Sinc, T_Sinc_DRLR,442.2, hit,1,0
1269,9, T_Sinc, T_Sinc_DRLR,457.7, hit,1,0
1270,9, T_Scon, T_Scon_DGRG,497, incorrect,1,1
1271,9, T_Sinc, T_Sinc_UGRG,796.5, incorrect,1,1
1272,9, T_Sinc, T_Sinc_DRLR,520, hit,1,0
1273,9, T_Sinc, T_Sinc_DRLR,947.3, hit,1,2
1274,9, T_Scon, T_Scon_DGRG,558.8, hit,2,0
1275,9, T_Sinc, T_Sinc_UGRG,962.3, incorrect,1,1
1276,9, T_Scon, T_Scon_URLR,509.7, hit,1,0
1277,9, T_Sinc, T_Sinc_DRLR,429.1, hit,1,0
1278,9, T_Sinc, T_Sinc_UGRG,512.6, hit,2,0
1279,9, T_Sinc, T_Sinc_UGRG,564, hit,2,0
1280,9, T_Scon, T_Scon_DGRG,491.4, hit,2,0
