trial_index, block, condition, full_condition_code, RT, response_type, response_key, error_outlier
1,1, T_Sinc, T_Sinc_UGRG,535, hit,2,0
2,1, T_Sinc, T_Sinc_DRLR,354.4, hit,1,0
3,1, T_Scon, T_Scon_URLR,397.9, hit,1,0
4,1, T_Sinc, T_Sinc_UGRG,349.3, hit,2,0
5,1, T_Sinc, T_Sinc_DRLR,408.7, hit,1,0
6,1, T_Sinc, T_Sinc_DRLR,332.1, hit,1,0
7,1, T_Sinc, T_Sinc_UGRG,323.6, hit,2,0
8,1, T_Sinc, T_Sinc_DRLR,331, hit,1,0
9,1, T_Sinc, T_Sinc_DRLR,342.5, hit,1,0
10,1, T_Sinc, T_Sinc_DRLR,309.9, hit,1,0
11,1, T_Scon, T_Scon_DGRG,325.4, incorrect,1,1
12,1, T_Sinc, T_Sinc_UGRG,340.8, hit,2,0
13,1, T_Sinc, T_Sinc_UGRG,344.3, hit,2,0
14,1, T_Scon, T_Scon_DGRG,419.6, hit,2,0
15,1, T_Scon, T_Scon_DGRG,383.1, hit,2,0
16,1, T_Scon, T_Scon_URLR,438.6, hit,1,0
17,1, T_Sinc, T_Sinc_UGRG,333.9, hit,2,0
18,1, T_Scon, T_Scon_DGRG,433.4, hit,2,0
19,1, T_Sinc, T_Sinc_DRLR,456.8, hit,1,0
20,1, T_Sinc, T_Sinc_DRLR,532.3, hit,1,0
21,1, T_Scon, T_Scon_DGRG,519.8, hit,2,0
22,1, T_Sinc, T_Sinc_DRLR,399.1, hit,1,0
23,1, T_Sinc, T_Sinc_UGRG,370.6, hit,2,0
24,1, T_Sinc, T_Sinc_UGRG,502.1, hit,2,0
25,1, T_Sinc, T_Sinc_DRLR,437.5, hit,1,0
26,1, T_Scon, T_Scon_DGRG,416.9, hit,2,0
27,1, T_Scon, T_Scon_DGRG,324.4, hit,2,0
28,1, T_Sinc, T_Sinc_UGRG,327.8, hit,2,0
29,1, T_Scon, T_Scon_URLR,351.2, incorrect,2,1
30,1, T_Sinc, T_Sinc_UGRG,418.7, hit,2,0
31,1, T_Sinc, T_Sinc_UGRG,430.1, hit,2,0
32,1, T_Sinc, T_Sinc_UGRG,345.5, hit,2,0
33,1, T_Scon, T_Scon_URLR,428.9, hit,1,0
34,1, T_Sinc, T_Sinc_DRLR,416.4, hit,1,0
35,1, T_Scon, T_Scon_URLR,383.9, hit,1,0
36,1, T_Scon, T_Scon_URLR,515.3, incorrect,2,1
37,1, T_Sinc, T_Sinc_DRLR,542.5, hit,1,0
38,1, T_Sinc, T_Sinc_DRLR,405.9, hit,1,0
39,1, T_Sinc, T_Sinc_UGRG,377.4, hit,2,0
40,1, T_Scon, T_Scon_URLR,572.7, hit,1,0
41,1, T_Scon, T_Scon_DGRG,456.2, hit,2,0
42,1, T_Sinc, T_Sinc_UGRG,355.7, hit,2,0
43,1, T_Sinc, T_Sinc_UGRG,323.1, hit,2,0
44,1, T_Sinc, T_Sinc_UGRG,310.5, hit,2,0
45,1, T_Scon, T_Scon_URLR,457.9, hit,1,0
46,1, T_Sinc, T_Sinc_DRLR,373.4, hit,1,0
47,1, T_Sinc, T_Sinc_DRLR,352.9, hit,1,0
48,1, T_Scon, T_Scon_URLR,468.3, hit,1,0
49,1, T_Sinc, T_Sinc_UGRG,431.7, hit,2,0
50,1, T_Sinc, T_Sinc_UGRG,339.2, hit,2,0
51,1, T_Sinc, T_Sinc_DRLR,374.6, hit,1,0
52,1, T_Scon, T_Scon_URLR,418, hit,1,0
53,1, T_Sinc, T_Sinc_UGRG,397.5, hit,2,0
54,1, T_Scon, T_Scon_DGRG,416.9, hit,2,0
55,1, T_Sinc, T_Sinc_UGRG,340.4, hit,2,0
56,1, T_Sinc, T_Sinc_UGRG,303.8, hit,2,0
57,1, T_Scon, T_Scon_URLR,351.2, hit,1,0
58,1, T_Sinc, T_Sinc_UGRG,362.7, hit,2,0
59,1, T_Scon, T_Scon_DGRG,446, hit,2,0
60,1, T_Sinc, T_Sinc_UGRG,321.5, hit,2,0
61,1, T_Scon, T_Scon_DGRG,317, hit,2,0
62,1, T_Sinc, T_Sinc_DRLR,360.4, hit,1,0
63,1, T_Sinc, T_Sinc_UGRG,367.8, hit,2,0
64,1, T_Sinc, T_Sinc_UGRG,275.3, hit,2,0
65,1, T_Sinc, T_Sinc_UGRG,302.7, hit,2,0
66,1, T_Sinc, T_Sinc_UGRG,294.1, hit,2,0
67,1, T_Scon, T_Scon_DGRG,389.6, hit,2,0
68,1, T_Sinc, T_Sinc_DRLR,433, hit,1,0
69,1, T_Scon, T_Scon_URLR,544.5, incorrect,2,1
70,1, T_Sinc, T_Sinc_DRLR,551.8, hit,1,0
71,1, T_Sinc, T_Sinc_DRLR,479.3, hit,1,0
72,1, T_Sinc, T_Sinc_UGRG,386.8, hit,2,0
73,1, T_Sinc, T_Sinc_UGRG,521.9, hit,2,0
74,1, T_Sinc, T_Sinc_UGRG,405.3, hit,2,0
75,1, T_Sinc, T_Sinc_UGRG,424.9, hit,2,0
76,1, T_Sinc, T_Sinc_DRLR,452.3, hit,1,0
77,1, T_Sinc, T_Sinc_DRLR,407.6, hit,1,0
78,1, T_Sinc, T_Sinc_UGRG,383.1, hit,2,0
79,1, T_Sinc, T_Sinc_DRLR,342.6, hit,1,0
80,1, T_Sinc, T_Sinc_DRLR,425.9, hit,1,0
81,1, T_Sinc, T_Sinc_DRLR,325.4, hit,1,0
82,1, T_Sinc, T_Sinc_DRLR,364.9, hit,1,0
83,1, T_Sinc, T_Sinc_DRLR,388.3, hit,1,0
84,1, T_Sinc, T_Sinc_UGRG,315.7, hit,2,0
85,1, T_Sinc, T_Sinc_DRLR,311.1, hit,1,0
86,1, T_Sinc, T_Sinc_DRLR,370.6, hit,1,0
87,1, T_Sinc, T_Sinc_UGRG,298, hit,2,0
88,1, T_Sinc, T_Sinc_UGRG,317.5, hit,2,0
89,1, T_Sinc, T_Sinc_UGRG,288.9, hit,2,0
90,1, T_Sinc, T_Sinc_DRLR,364.3, hit,1,0
91,1, T_Sinc, T_Sinc_UGRG,319.7, hit,2,0
92,1, T_Sinc, T_Sinc_DRLR,295.2, hit,1,0
93,1, T_Sinc, T_Sinc_UGRG,330.7, hit,2,0
94,1, T_Sinc, T_Sinc_DRLR,390, hit,1,0
95,1, T_Sinc, T_Sinc_DRLR,401.5, hit,1,0
96,1, T_Sinc, T_Sinc_DRLR,444.9, hit,1,0
97,1, T_Scon, T_Scon_DGRG,376.4, incorrect,1,1
98,1, T_Sinc, T_Sinc_UGRG,347.8, hit,2,0
99,1, T_Sinc, T_Sinc_DRLR,603.3, hit,1,0
100,1, T_Sinc, T_Sinc_DRLR,458.7, hit,1,0
101,1, T_Sinc, T_Sinc_UGRG,306.2, hit,2,0
102,1, T_Scon, T_Scon_DGRG,365.5, hit,2,0
103,1, T_Scon, T_Scon_URLR,449, hit,1,0
104,1, T_Sinc, T_Sinc_DRLR,396.5, hit,1,0
105,1, T_Sinc, T_Sinc_UGRG,363.9, hit,2,0
106,1, T_Sinc, T_Sinc_DRLR,395.3, hit,1,0
107,1, T_Scon, T_Scon_DGRG,570.8, hit,2,0
108,1, T_Sinc, T_Sinc_DRLR,478.2, hit,1,0
109,1, T_Sinc, T_Sinc_DRLR,565.4, hit,1,0
110,1, T_Scon, T_Scon_DGRG,380.8, hit,2,0
111,1, T_Scon, T_Scon_URLR,376.3, hit,1,0
112,1, T_Sinc, T_Sinc_DRLR,395.7, hit,1,0
113,1, T_Sinc, T_Sinc_UGRG,943.1, hit,2,2
114,1, T_Scon, T_Scon_URLR,570.6, hit,1,0
115,1, T_Sinc, T_Sinc_UGRG,517.9, hit,2,0
116,1, T_Sinc, T_Sinc_UGRG,369.4, hit,2,0
117,1, T_Sinc, T_Sinc_DRLR,356.9, hit,1,0
118,1, T_Scon, T_Scon_DGRG,360.3, hit,2,0
119,1, T_Sinc, T_Sinc_DRLR,379.7, hit,1,0
120,1, T_Sinc, T_Sinc_UGRG,387.2, hit,2,0
121,1, T_Sinc, T_Sinc_UGRG,322.6, hit,2,0
122,1, T_Sinc, T_Sinc_DRLR,546, hit,1,0
123,1, T_Sinc, T_Sinc_UGRG,353.5, hit,2,0
124,1, T_Sinc, T_Sinc_DRLR,420.9, hit,1,0
125,1, T_Sinc, T_Sinc_DRLR,360.4, hit,1,0
126,1, T_Sinc, T_Sinc_UGRG,315.8, hit,2,0
127,1, T_Sinc, T_Sinc_UGRG,335.2, hit,2,0
128,1, T_Sinc, T_Sinc_UGRG,294.7, hit,2,0
129,1, T_Scon, T_Scon_URLR,446.1, hit,1,0
130,1, T_Sinc, T_Sinc_DRLR,425.5, hit,1,0
131,1, T_Sinc, T_Sinc_UGRG,317, hit,2,0
132,1, T_Sinc, T_Sinc_DRLR,336.4, hit,1,0
133,1, T_Scon, T_Scon_URLR,415.9, hit,1,0
134,1, T_Sinc, T_Sinc_DRLR,383.3, hit,1,0
135,1, T_Sinc, T_Sinc_DRLR,406.7, hit,1,0
136,1, T_Sinc, T_Sinc_DRLR,386.2, hit,1,0
137,1, T_Sinc, T_Sinc_DRLR,349.5, hit,1,0
138,1, T_Sinc, T_Sinc_UGRG,297, hit,2,0
139,1, T_Scon, T_Scon_DGRG,324.5, incorrect,1,1
140,1, T_Sinc, T_Sinc_DRLR,403.9, hit,1,0
141,1, T_Sinc, T_Sinc_DRLR,359.3, hit,1,0
142,1, T_Sinc, T_Sinc_UGRG,410.8, hit,2,0
143,1, T_Scon, T_Scon_URLR,490.2, hit,1,0
144,1, T_Sinc, T_Sinc_UGRG,597.7, hit,2,0
145,2, T_Sinc, T_Sinc_UGRG,502.3, hit,2,0
146,2, T_Sinc, T_Sinc_UGRG,361.7, hit,2,0
147,2, T_Scon, T_Scon_URLR,397.2, hit,1,0
148,2, T_Scon, T_Scon_DGRG,488.7, hit,2,0
149,2, T_Sinc, T_Sinc_DRLR,484, hit,1,0
150,2, T_Sinc, T_Sinc_DRLR,351.5, hit,1,0
151,2, T_Sinc, T_Sinc_UGRG,387, hit,2,0
152,2, T_Sinc, T_Sinc_DRLR,438.3, hit,1,0
153,2, T_Sinc, T_Sinc_UGRG,485.8, hit,2,0
154,2, T_Sinc, T_Sinc_DRLR,485.2, hit,1,0
155,2, T_Sinc, T_Sinc_DRLR,372.7, hit,1,0
156,2, T_Sinc, T_Sinc_DRLR,448.1, hit,1,0
157,2, T_Sinc, T_Sinc_DRLR,459.5, hit,1,0
158,2, T_Sinc, T_Sinc_DRLR,367, hit,1,0
159,2, T_Scon, T_Scon_DGRG,490.5, hit,2,0
160,2, T_Sinc, T_Sinc_UGRG,533.8, hit,2,0
161,2, T_Sinc, T_Sinc_UGRG,493.3, hit,2,0
162,2, T_Sinc, T_Sinc_UGRG,448.8, hit,2,0
163,2, T_Sinc, T_Sinc_UGRG,332.1, hit,2,0
164,2, T_Scon, T_Scon_URLR,407.6, incorrect,2,1
165,2, T_Sinc, T_Sinc_DRLR,547.1, hit,1,0
166,2, T_Sinc, T_Sinc_UGRG,566.5, hit,2,0
167,2, T_Sinc, T_Sinc_UGRG,434, hit,2,0
168,2, T_Sinc, T_Sinc_DRLR,509.4, hit,1,0
169,2, T_Sinc, T_Sinc_DRLR,404.8, hit,1,0
170,2, T_Sinc, T_Sinc_UGRG,424.3, hit,2,0
171,2, T_Sinc, T_Sinc_DRLR,643.7, hit,1,0
172,2, T_Sinc, T_Sinc_DRLR,439.1, hit,1,0
173,2, T_Sinc, T_Sinc_DRLR,350.6, hit,1,0
174,2, T_Sinc, T_Sinc_DRLR,366, hit,1,0
175,2, T_Sinc, T_Sinc_DRLR,377.5, hit,1,0
176,2, T_Sinc, T_Sinc_UGRG,528.9, hit,2,0
177,2, T_Sinc, T_Sinc_UGRG,364.3, hit,2,0
178,2, T_Sinc, T_Sinc_DRLR,471.8, hit,1,0
179,2, T_Sinc, T_Sinc_DRLR,367.3, hit,1,0
180,2, T_Scon, T_Scon_DGRG,514.6, hit,2,0
181,2, T_Sinc, T_Sinc_UGRG,577.9, hit,2,0
182,2, T_Scon, T_Scon_URLR,537.2, hit,1,0
183,2, T_Sinc, T_Sinc_UGRG,496.6, hit,2,0
184,2, T_Scon, T_Scon_DGRG,448.1, hit,2,0
185,2, T_Sinc, T_Sinc_DRLR,483.6, hit,1,0
186,2, T_Sinc, T_Sinc_UGRG,454.9, hit,2,0
187,2, T_Scon, T_Scon_URLR,490.4, hit,1,0
188,2, T_Sinc, T_Sinc_UGRG,445.9, hit,2,0
189,2, T_Scon, T_Scon_URLR,425.3, hit,1,0
190,2, T_Sinc, T_Sinc_UGRG,364.7, hit,2,0
191,2, T_Sinc, T_Sinc_DRLR,480.2, hit,1,0
192,2, T_Sinc, T_Sinc_DRLR,379.6, hit,1,0
193,2, T_Sinc, T_Sinc_UGRG,383.1, hit,2,0
194,2, T_Sinc, T_Sinc_UGRG,478.5, hit,2,0
195,2, T_Sinc, T_Sinc_DRLR,769.9, hit,1,2
196,2, T_Sinc, T_Sinc_UGRG,401.4, hit,2,0
197,2, T_Sinc, T_Sinc_UGRG,384.8, hit,2,0
198,2, T_Scon, T_Scon_URLR,492.3, hit,1,0
199,2, T_Sinc, T_Sinc_DRLR,415.7, hit,1,0
200,2, T_Sinc, T_Sinc_UGRG,423.1, hit,2,0
201,2, T_Scon, T_Scon_URLR,502.6, hit,1,0
202,2, T_Sinc, T_Sinc_DRLR,546, hit,1,0
203,2, T_Scon, T_Scon_URLR,393.4, hit,1,0
204,2, T_Scon, T_Scon_DGRG,500.9, hit,2,0
205,2, T_Sinc, T_Sinc_DRLR,520.3, hit,1,0
206,2, T_Sinc, T_Sinc_UGRG,371.7, hit,2,0
207,2, T_Sinc, T_Sinc_UGRG,423.2, hit,2,0
208,2, T_Sinc, T_Sinc_UGRG,394.6, hit,2,0
209,2, T_Sinc, T_Sinc_UGRG,350.1, hit,2,0
210,2, T_Scon, T_Scon_URLR,561.5, hit,1,0
211,2, T_Sinc, T_Sinc_UGRG,405, hit,2,0
212,2, T_Sinc, T_Sinc_UGRG,376.4, hit,2,0
213,2, T_Scon, T_Scon_DGRG,451.8, hit,2,0
214,2, T_Scon, T_Scon_DGRG,351.2, hit,2,0
215,2, T_Scon, T_Scon_URLR,378.7, hit,1,0
216,2, T_Sinc, T_Sinc_UGRG,486.2, hit,2,0
217,2, T_Sinc, T_Sinc_UGRG,613.3, hit,2,0
218,2, T_Sinc, T_Sinc_UGRG,364.7, hit,2,0
219,2, T_Sinc, T_Sinc_UGRG,564.2, hit,2,0
220,2, T_Sinc, T_Sinc_UGRG,383.7, hit,2,0
221,2, T_Scon, T_Scon_URLR,455, hit,1,0
222,2, T_Sinc, T_Sinc_UGRG,402.5, incorrect,1,1
223,2, T_Scon, T_Scon_DGRG,457.9, hit,2,0
224,2, T_Sinc, T_Sinc_DRLR,685.3, hit,1,2
225,2, T_Sinc, T_Sinc_UGRG,484.8, hit,2,0
226,2, T_Sinc, T_Sinc_UGRG,392.2, hit,2,0
227,2, T_Scon, T_Scon_URLR,471.7, hit,1,0
228,2, T_Sinc, T_Sinc_UGRG,411.1, hit,2,0
229,2, T_Sinc, T_Sinc_DRLR,462.5, hit,1,0
230,2, T_Sinc, T_Sinc_DRLR,466, hit,1,0
231,2, T_Sinc, T_Sinc_DRLR,381.4, hit,1,0
232,2, T_Sinc, T_Sinc_DRLR,400.8, hit,1,0
233,2, T_Sinc, T_Sinc_DRLR,408.3, hit,1,0
234,2, T_Sinc, T_Sinc_DRLR,391.8, hit,1,0
235,2, T_Sinc, T_Sinc_UGRG,391.1, hit,2,0
236,2, T_Scon, T_Scon_URLR,450.6, hit,1,0
237,2, T_Sinc, T_Sinc_DRLR,646, hit,1,0
238,2, T_Sinc, T_Sinc_DRLR,385.4, hit,1,0
239,2, T_Sinc, T_Sinc_UGRG,452.9, hit,2,0
240,2, T_Sinc, T_Sinc_DRLR,416.4, hit,1,0
241,2, T_Sinc, T_Sinc_DRLR,411.8, hit,1,0
242,2, T_Sinc, T_Sinc_DRLR,327.2, hit,1,0
243,2, T_Scon, T_Scon_DGRG,410.6, hit,2,0
244,2, T_Sinc, T_Sinc_UGRG,318.1, hit,2,0
245,2, T_Scon, T_Scon_DGRG,305.5, hit,2,0
246,2, T_Sinc, T_Sinc_DRLR,344.9, hit,1,0
247,2, T_Sinc, T_Sinc_UGRG,356.4, hit,2,0
248,2, T_Sinc, T_Sinc_DRLR,311.8, hit,1,0
249,2, T_Sinc, T_Sinc_UGRG,323.2, hit,2,0
250,2, T_Sinc, T_Sinc_DRLR,478.7, hit,1,0
251,2, T_Sinc, T_Sinc_UGRG,290.2, hit,2,0
252,2, T_Sinc, T_Sinc_DRLR,309.5, hit,1,0
253,2, T_Scon, T_Scon_URLR,500.8, hit,1,0
254,2, T_Sinc, T_Sinc_UGRG,396.2, hit,2,0
255,2, T_Sinc, T_Sinc_UGRG,427.6, hit,2,0
256,2, T_Sinc, T_Sinc_DRLR,331, hit,1,0
257,2, T_Sinc, T_Sinc_UGRG,366.5, hit,2,0
258,2, T_Sinc, T_Sinc_UGRG,309.8, hit,2,0
259,2, T_Sinc, T_Sinc_DRLR,369.3, hit,1,0
260,2, T_Sinc, T_Sinc_DRLR,388.8, hit,1,0
261,2, T_Sinc, T_Sinc_DRLR,348.2, hit,1,0
262,2, T_Scon, T_Scon_DGRG,319.6, incorrect,1,1
263,2, T_Scon, T_Scon_DGRG,431.1, hit,2,0
264,2, T_Sinc, T_Sinc_DRLR,406.5, hit,1,0
265,2, T_Sinc, T_Sinc_UGRG,414, hit,2,0
266,2, T_Sinc, T_Sinc_UGRG,465.4, hit,2,0
267,2, T_Sinc, T_Sinc_DRLR,404.8, hit,1,0
268,2, T_Sinc, T_Sinc_DRLR,388.3, hit,1,0
269,2, T_Scon, T_Scon_DGRG,447.8, hit,2,0
270,2, T_Sinc, T_Sinc_DRLR,475.1, hit,1,0
271,2, T_Scon, T_Scon_DGRG,522.6, hit,2,0
272,2, T_Scon, T_Scon_URLR,518, hit,1,0
273,2, T_Sinc, T_Sinc_UGRG,541.4, hit,2,0
274,2, T_Sinc, T_Sinc_UGRG,388.9, hit,2,0
275,2, T_Sinc, T_Sinc_DRLR,312.3, hit,1,0
276,2, T_Scon, T_Scon_DGRG,391.8, hit,2,0
277,2, T_Sinc, T_Sinc_UGRG,363.2, incorrect,1,1
278,2, T_Scon, T_Scon_URLR,458.6, hit,1,0
279,2, T_Sinc, T_Sinc_DRLR,342.1, incorrect,2,1
280,2, T_Sinc, T_Sinc_DRLR,421.5, hit,1,0
281,2, T_Sinc, T_Sinc_DRLR,524.9, hit,1,0
282,2, T_Scon, T_Scon_URLR,440.4, hit,1,0
283,2, T_Scon, T_Scon_URLR,503.9, hit,1,0
284,2, T_Sinc, T_Sinc_DRLR,495.2, hit,1,0
285,2, T_Scon, T_Scon_DGRG,474.7, hit,2,0
286,2, T_Scon, T_Scon_DGRG,382.1, hit,2,0
287,2, T_Sinc, T_Sinc_UGRG,413.6, hit,2,0
288,2, T_Scon, T_Scon_DGRG,365, hit,2,0
289,3, T_Sinc, T_Sinc_DRLR,414.6, hit,1,0
290,3, T_Sinc, T_Sinc_DRLR,458.1, hit,1,0
291,3, T_Sinc, T_Sinc_DRLR,333.5, hit,1,0
292,3, T_Scon, T_Scon_DGRG,512.9, hit,2,0
293,3, T_Scon, T_Scon_DGRG,356.3, hit,2,0
294,3, T_Scon, T_Scon_URLR,443.8, hit,1,0
295,3, T_Sinc, T_Sinc_UGRG,615.3, incorrect,1,1
296,3, T_Scon, T_Scon_URLR,538.6, hit,1,0
297,3, T_Sinc, T_Sinc_DRLR,518.1, hit,1,0
298,3, T_Sinc, T_Sinc_UGRG,473.6, hit,2,0
299,3, T_Sinc, T_Sinc_DRLR,404.9, hit,1,0
300,3, T_Sinc, T_Sinc_DRLR,408.4, hit,1,0
301,3, T_Sinc, T_Sinc_UGRG,355.9, hit,2,0
302,3, T_Sinc, T_Sinc_UGRG,367.3, hit,2,0
303,3, T_Sinc, T_Sinc_UGRG,490.8, hit,2,0
304,3, T_Sinc, T_Sinc_UGRG,366.1, hit,2,0
305,3, T_Sinc, T_Sinc_UGRG,373.6, hit,2,0
306,3, T_Sinc, T_Sinc_DRLR,461.1, hit,1,0
307,3, T_Sinc, T_Sinc_UGRG,496.4, hit,2,0
308,3, T_Sinc, T_Sinc_DRLR,431.9, hit,1,0
309,3, T_Scon, T_Scon_DGRG,459.4, hit,2,0
310,3, T_Sinc, T_Sinc_UGRG,414.7, hit,2,0
311,3, T_Sinc, T_Sinc_UGRG,310.2, hit,2,0
312,3, T_Sinc, T_Sinc_UGRG,321.7, hit,2,0
313,3, T_Sinc, T_Sinc_UGRG,305.1, hit,2,0
314,3, T_Sinc, T_Sinc_UGRG,380.6, hit,2,0
315,3, T_Sinc, T_Sinc_UGRG,308, hit,2,0
316,3, T_Sinc, T_Sinc_DRLR,423.4, hit,1,0
317,3, T_Scon, T_Scon_DGRG,490.9, hit,2,0
318,3, T_Sinc, T_Sinc_DRLR,410.2, hit,1,0
319,3, T_Sinc, T_Sinc_DRLR,373.7, hit,1,0
320,3, T_Sinc, T_Sinc_DRLR,393.2, hit,1,0
321,3, T_Sinc, T_Sinc_UGRG,404.6, hit,2,0
322,3, T_Sinc, T_Sinc_DRLR,448.1, hit,1,0
323,3, T_Sinc, T_Sinc_UGRG,327.5, hit,2,0
324,3, T_Scon, T_Scon_DGRG,450.9, hit,2,0
325,3, T_Sinc, T_Sinc_DRLR,490.2, hit,1,0
326,3, T_Sinc, T_Sinc_DRLR,357.5, hit,1,0
327,3, T_Sinc, T_Sinc_UGRG,377, hit,2,0
328,3, T_Scon, T_Scon_DGRG,412.4, hit,2,0
329,3, T_Sinc, T_Sinc_DRLR,355.8, hit,1,0
330,3, T_Sinc, T_Sinc_UGRG,331.2, hit,2,0
331,3, T_Sinc, T_Sinc_DRLR,518.7, hit,1,0
332,3, T_Sinc, T_Sinc_DRLR,330.2, hit,1,0
333,3, T_Sinc, T_Sinc_UGRG,381.5, hit,2,0
334,3, T_Sinc, T_Sinc_DRLR,349, hit,1,0
335,3, T_Sinc, T_Sinc_DRLR,356.5, hit,1,0
336,3, T_Sinc, T_Sinc_DRLR,367.9, hit,1,0
337,3, T_Sinc, T_Sinc_DRLR,331.3, hit,1,0
338,3, T_Scon, T_Scon_DGRG,398.8, hit,2,0
339,3, T_Scon, T_Scon_URLR,346.2, hit,1,0
340,3, T_Sinc, T_Sinc_UGRG,361.7, hit,2,0
341,3, T_Sinc, T_Sinc_DRLR,429.1, hit,1,0
342,3, T_Sinc, T_Sinc_DRLR,332.5, hit,1,0
343,3, T_Scon, T_Scon_URLR,444, hit,1,0
344,3, T_Sinc, T_Sinc_DRLR,331.4, hit,1,0
345,3, T_Sinc, T_Sinc_DRLR,366.8, hit,1,0
346,3, T_Sinc, T_Sinc_UGRG,402.3, hit,2,0
347,3, T_Scon, T_Scon_DGRG,377.7, hit,2,0
348,3, T_Sinc, T_Sinc_UGRG,365.1, hit,2,0
349,3, T_Sinc, T_Sinc_UGRG,360.6, hit,2,0
350,3, T_Scon, T_Scon_URLR,408, hit,1,0
351,3, T_Sinc, T_Sinc_UGRG,395.5, hit,2,0
352,3, T_Sinc, T_Sinc_UGRG,390.9, hit,2,0
353,3, T_Scon, T_Scon_URLR,478.3, hit,1,0
354,3, T_Sinc, T_Sinc_UGRG,477.8, hit,2,0
355,3, T_Scon, T_Scon_DGRG,609.3, hit,2,0
356,3, T_Sinc, T_Sinc_UGRG,348.6, hit,2,0
357,3, T_Scon, T_Scon_URLR,352.1, hit,1,0
358,3, T_Sinc, T_Sinc_UGRG,363.5, incorrect,1,1
359,3, T_Sinc, T_Sinc_UGRG,391, hit,2,0
360,3, T_Sinc, T_Sinc_UGRG,302.4, hit,2,0
361,3, T_Scon, T_Scon_DGRG,469.6, hit,2,0
362,3, T_Sinc, T_Sinc_UGRG,340.9, hit,2,0
363,3, T_Sinc, T_Sinc_DRLR,504.4, hit,1,0
364,3, T_Sinc, T_Sinc_UGRG,439.9, hit,2,0
365,3, T_Sinc, T_Sinc_UGRG,355.3, hit,2,0
366,3, T_Scon, T_Scon_URLR,394.7, hit,1,0
367,3, T_Scon, T_Scon_URLR,418.2, hit,1,0
368,3, T_Sinc, T_Sinc_UGRG,437.6, hit,2,0
369,3, T_Sinc, T_Sinc_DRLR,401.1, hit,1,0
370,3, T_Sinc, T_Sinc_DRLR,396.5, hit,1,0
371,3, T_Sinc, T_Sinc_UGRG,343.9, hit,2,0
372,3, T_Sinc, T_Sinc_UGRG,331.4, hit,2,0
373,3, T_Sinc, T_Sinc_DRLR,406.8, hit,1,0
374,3, T_Sinc, T_Sinc_UGRG,530.2, hit,2,0
375,3, T_Sinc, T_Sinc_UGRG,397.7, hit,2,0
376,3, T_Sinc, T_Sinc_DRLR,289.1, hit,1,0
377,3, T_Sinc, T_Sinc_UGRG,348.5, hit,2,0
378,3, T_Scon, T_Scon_DGRG,388, hit,2,0
379,3, T_Sinc, T_Sinc_DRLR,387.4, hit,1,0
380,3, T_Sinc, T_Sinc_DRLR,322.9, hit,1,0
381,3, T_Scon, T_Scon_URLR,422.3, hit,1,0
382,3, T_Sinc, T_Sinc_DRLR,337.7, hit,1,0
383,3, T_Sinc, T_Sinc_DRLR,341.2, hit,1,0
384,3, T_Scon, T_Scon_URLR,352.7, hit,1,0
385,3, T_Sinc, T_Sinc_UGRG,416, hit,2,0
386,3, T_Sinc, T_Sinc_UGRG,307.5, hit,2,0
387,3, T_Scon, T_Scon_DGRG,319, hit,2,0
388,3, T_Sinc, T_Sinc_UGRG,294.3, hit,2,0
389,3, T_Scon, T_Scon_DGRG,337.8, hit,2,0
390,3, T_Scon, T_Scon_URLR,325.2, hit,1,0
391,3, T_Sinc, T_Sinc_DRLR,308.7, hit,1,0
392,3, T_Sinc, T_Sinc_DRLR,360.1, hit,1,0
393,3, T_Scon, T_Scon_URLR,343.5, hit,1,0
394,3, T_Sinc, T_Sinc_DRLR,379, hit,1,0
395,3, T_Sinc, T_Sinc_DRLR,346.4, hit,1,0
396,3, T_Scon, T_Scon_DGRG,493.8, hit,2,0
397,3, T_Scon, T_Scon_DGRG,541.1, hit,2,0
398,3, T_Sinc, T_Sinc_DRLR,476.4, hit,1,0
399,3, T_Sinc, T_Sinc_UGRG,375.9, hit,2,0
400,3, T_Sinc, T_Sinc_DRLR,363.3, hit,1,0
401,3, T_Sinc, T_Sinc_DRLR,486.7, hit,1,0
402,3, T_Sinc, T_Sinc_UGRG,450.2, hit,2,0
403,3, T_Sinc, T_Sinc_DRLR,425.6, hit,1,0
404,3, T_Sinc, T_Sinc_DRLR,413, hit,1,0
405,3, T_Sinc, T_Sinc_UGRG,384.4, hit,2,0
406,3, T_Sinc, T_Sinc_UGRG,355.9, hit,2,0
407,3, T_Scon, T_Scon_DGRG,407.4, hit,2,0
408,3, T_Sinc, T_Sinc_DRLR,434.7, hit,1,0
409,3, T_Sinc, T_Sinc_UGRG,426.2, hit,2,0
410,3, T_Scon, T_Scon_URLR,793.7, hit,1,2
411,3, T_Sinc, T_Sinc_DRLR,381.1, hit,1,0
412,3, T_Sinc, T_Sinc_UGRG,348.5, hit,2,0
413,3, T_Sinc, T_Sinc_UGRG,432, hit,2,0
414,3, T_Sinc, T_Sinc_DRLR,423.4, hit,1,0
415,3, T_Sinc, T_Sinc_UGRG,406.8, hit,2,0
416,3, T_Scon, T_Scon_URLR,478.3, hit,1,0
417,3, T_Sinc, T_Sinc_DRLR,385.7, hit,1,0
418,3, T_Scon, T_Scon_URLR,337.2, incorrect,2,1
419,3, T_Sinc, T_Sinc_UGRG,312.6, hit,2,0
420,3, T_Sinc, T_Sinc_UGRG,340, hit,2,0
421,3, T_Scon, T_Scon_URLR,387.5, hit,1,0
422,3, T_Sinc, T_Sinc_UGRG,391, hit,2,0
423,3, T_Scon, T_Scon_DGRG,466.3, hit,2,0
424,3, T_Sinc, T_Sinc_DRLR,461.8, hit,1,0
425,3, T_Scon, T_Scon_DGRG,617.2, hit,2,0
426,3, T_Sinc, T_Sinc_DRLR,492.6, hit,1,0
427,3, T_Scon, T_Scon_URLR,388.1, hit,1,0
428,3, T_Sinc, T_Sinc_UGRG,647.5, hit,2,0
429,3, T_Sinc, T_Sinc_DRLR,459, hit,1,0
430,3, T_Sinc, T_Sinc_DRLR,430.4, hit,1,0
431,3, T_Sinc, T_Sinc_DRLR,381.8, hit,1,0
432,3, T_Sinc, T_Sinc_DRLR,345.3, hit,1,0
433,4, T_Scon, T_Scon_DGRG,512.7, hit,2,0
434,4, T_Scon, T_Scon_URLR,360.2, hit,1,0
435,4, T_Scon, T_Scon_DGRG,483.6, hit,2,0
436,4, T_Scon, T_Scon_DGRG,375.1, hit,2,0
437,4, T_Scon, T_Scon_DGRG,410.4, hit,2,0
438,4, T_Sinc, T_Sinc_DRLR,470, hit,1,0
439,4, T_Scon, T_Scon_DGRG,401.4, hit,2,0
440,4, T_Scon, T_Scon_DGRG,412.8, hit,2,0
441,4, T_Scon, T_Scon_URLR,456.2, hit,1,0
442,4, T_Sinc, T_Sinc_UGRG,503.7, hit,2,0
443,4, T_Scon, T_Scon_DGRG,399.1, hit,2,0
444,4, T_Scon, T_Scon_URLR,410.6, hit,1,0
445,4, T_Sinc, T_Sinc_DRLR,554, hit,1,0
446,4, T_Scon, T_Scon_URLR,397.4, hit,1,0
447,4, T_Scon, T_Scon_URLR,384.9, hit,1,0
448,4, T_Scon, T_Scon_URLR,356.3, hit,1,0
449,4, T_Sinc, T_Sinc_UGRG,403.7, hit,2,0
450,4, T_Scon, T_Scon_DGRG,395.2, hit,2,0
451,4, T_Scon, T_Scon_DGRG,414.6, hit,2,0
452,4, T_Scon, T_Scon_URLR,410, hit,1,0
453,4, T_Scon, T_Scon_URLR,413.5, hit,1,0
454,4, T_Scon, T_Scon_DGRG,664.9, hit,2,0
455,4, T_Scon, T_Scon_URLR,388.4, hit,1,0
456,4, T_Sinc, T_Sinc_UGRG,495.8, hit,2,0
457,4, T_Scon, T_Scon_URLR,487.2, hit,1,0
458,4, T_Scon, T_Scon_URLR,362.7, hit,1,0
459,4, T_Scon, T_Scon_URLR,454.1, hit,1,0
460,4, T_Scon, T_Scon_DGRG,433.5, hit,2,0
461,4, T_Scon, T_Scon_DGRG,417, hit,2,0
462,4, T_Sinc, T_Sinc_UGRG,380.5, hit,2,0
463,4, T_Sinc, T_Sinc_DRLR,411.8, hit,1,0
464,4, T_Scon, T_Scon_DGRG,391.3, hit,2,0
465,4, T_Sinc, T_Sinc_DRLR,546.7, hit,1,0
466,4, T_Scon, T_Scon_DGRG,538.2, hit,2,0
467,4, T_Scon, T_Scon_URLR,429.6, hit,1,0
468,4, T_Scon, T_Scon_DGRG,517.1, hit,2,0
469,4, T_Scon, T_Scon_DGRG,1484.3, hit,2,2
470,4, T_Sinc, T_Sinc_DRLR,487.6, hit,1,0
471,4, T_Scon, T_Scon_URLR,923.1, hit,1,2
472,4, T_Scon, T_Scon_DGRG,426.5, hit,2,0
473,4, T_Scon, T_Scon_URLR,525.9, hit,1,0
474,4, T_Sinc, T_Sinc_UGRG,433.4, incorrect,1,1
475,4, T_Scon, T_Scon_URLR,440.8, hit,1,0
476,4, T_Scon, T_Scon_URLR,384.2, hit,1,0
477,4, T_Scon, T_Scon_URLR,515.7, hit,1,0
478,4, T_Sinc, T_Sinc_UGRG,447.2, hit,2,0
479,4, T_Scon, T_Scon_DGRG,418.6, hit,2,0
480,4, T_Scon, T_Scon_URLR,402, hit,1,0
481,4, T_Scon, T_Scon_URLR,813.4, hit,1,2
482,4, T_Scon, T_Scon_URLR,400.9, hit,1,0
483,4, T_Scon, T_Scon_URLR,748.3, hit,1,2
484,4, T_Scon, T_Scon_URLR,471.7, hit,1,0
485,4, T_Scon, T_Scon_URLR,327.2, hit,1,0
486,4, T_Scon, T_Scon_DGRG,418.6, hit,2,0
487,4, T_Scon, T_Scon_DGRG,350.1, hit,2,0
488,4, T_Scon, T_Scon_URLR,397.5, hit,1,0
489,4, T_Sinc, T_Sinc_DRLR,524.9, hit,1,0
490,4, T_Scon, T_Scon_DGRG,648.4, hit,2,0
491,4, T_Scon, T_Scon_URLR,547.9, hit,1,0
492,4, T_Scon, T_Scon_DGRG,423.2, hit,2,0
493,4, T_Sinc, T_Sinc_UGRG,378.7, hit,2,0
494,4, T_Scon, T_Scon_DGRG,414.2, hit,2,0
495,4, T_Sinc, T_Sinc_UGRG,361.6, hit,2,0
496,4, T_Scon, T_Scon_DGRG,349, hit,2,0
497,4, T_Scon, T_Scon_URLR,360.4, hit,1,0
498,4, T_Scon, T_Scon_URLR,351.9, hit,1,0
499,4, T_Scon, T_Scon_DGRG,427.4, hit,2,0
500,4, T_Scon, T_Scon_URLR,426.7, hit,1,0
501,4, T_Scon, T_Scon_URLR,318.2, hit,1,0
502,4, T_Scon, T_Scon_DGRG,361.7, hit,2,0
503,4, T_Scon, T_Scon_DGRG,381, hit,2,0
504,4, T_Scon, T_Scon_DGRG,372.5, hit,2,0
505,4, T_Scon, T_Scon_DGRG,439.7, hit,2,0
506,4, T_Scon, T_Scon_URLR,703.1, hit,1,0
507,4, T_Sinc, T_Sinc_DRLR,394.5, hit,1,0
508,4, T_Scon, T_Scon_DGRG,494, hit,2,0
509,4, T_Scon, T_Scon_DGRG,369.5, hit,2,0
510,4, T_Scon, T_Scon_DGRG,368.8, hit,2,0
511,4, T_Scon, T_Scon_URLR,412.3, hit,1,0
512,4, T_Scon, T_Scon_URLR,335.7, hit,1,0
513,4, T_Scon, T_Scon_URLR,395.1, hit,1,0
514,4, T_Sinc, T_Sinc_UGRG,522.6, hit,2,0
515,4, T_Sinc, T_Sinc_UGRG,346, hit,2,0
516,4, T_Sinc, T_Sinc_UGRG,413.5, hit,2,0
517,4, T_Sinc, T_Sinc_DRLR,464.9, hit,1,0
518,4, T_Sinc, T_Sinc_UGRG,444.3, hit,2,0
519,4, T_Scon, T_Scon_DGRG,547.8, hit,2,0
520,4, T_Scon, T_Scon_URLR,403.3, hit,1,0
521,4, T_Scon, T_Scon_URLR,342.6, hit,1,0
522,4, T_Sinc, T_Sinc_DRLR,486.1, hit,1,0
523,4, T_Scon, T_Scon_DGRG,497.6, hit,2,0
524,4, T_Sinc, T_Sinc_DRLR,437, hit,1,0
525,4, T_Scon, T_Scon_DGRG,496.4, hit,2,0
526,4, T_Scon, T_Scon_URLR,543.8, hit,1,0
527,4, T_Scon, T_Scon_URLR,391.3, hit,1,0
528,4, T_Sinc, T_Sinc_DRLR,410.7, hit,1,0
529,4, T_Sinc, T_Sinc_UGRG,470.1, hit,2,0
530,4, T_Sinc, T_Sinc_UGRG,641.6, incorrect,1,1
531,4, T_Sinc, T_Sinc_UGRG,389.1, hit,2,0
532,4, T_Scon, T_Scon_DGRG,384.4, hit,2,0
533,4, T_Sinc, T_Sinc_DRLR,419.9, hit,1,0
534,4, T_Scon, T_Scon_URLR,467.4, hit,1,0
535,4, T_Sinc, T_Sinc_UGRG,382.8, hit,2,0
536,4, T_Scon, T_Scon_URLR,510.2, hit,1,0
537,4, T_Scon, T_Scon_URLR,389.6, hit,1,0
538,4, T_Scon, T_Scon_URLR,321.1, hit,1,0
539,4, T_Scon, T_Scon_DGRG,364.5, hit,2,0
540,4, T_Scon, T_Scon_URLR,675.9, hit,1,0
541,4, T_Scon, T_Scon_DGRG,359.2, hit,2,0
542,4, T_Scon, T_Scon_URLR,414.5, hit,1,0
543,4, T_Scon, T_Scon_DGRG,490, hit,2,0
544,4, T_Scon, T_Scon_DGRG,433.4, hit,2,0
545,4, T_Scon, T_Scon_DGRG,372.8, hit,2,0
546,4, T_Scon, T_Scon_DGRG,352.3, hit,2,0
547,4, T_Scon, T_Scon_DGRG,339.7, hit,2,0
548,4, T_Scon, T_Scon_DGRG,391.2, hit,2,0
549,4, T_Sinc, T_Sinc_DRLR,466.6, hit,1,0
550,4, T_Sinc, T_Sinc_UGRG,518, hit,2,0
551,4, T_Scon, T_Scon_DGRG,569.5, hit,2,0
552,4, T_Scon, T_Scon_URLR,384.9, hit,1,0
553,4, T_Scon, T_Scon_URLR,380.3, hit,1,0
554,4, T_Scon, T_Scon_DGRG,383.8, hit,2,0
555,4, T_Scon, T_Scon_URLR,651.3, hit,1,0
556,4, T_Scon, T_Scon_DGRG,454.6, hit,2,0
557,4, T_Scon, T_Scon_DGRG,374.1, hit,2,0
558,4, T_Sinc, T_Sinc_DRLR,481.5, hit,1,0
559,4, T_Sinc, T_Sinc_UGRG,529, hit,2,0
560,4, T_Scon, T_Scon_URLR,448.4, hit,1,0
561,4, T_Scon, T_Scon_DGRG,379.8, hit,2,0
562,4, T_Scon, T_Scon_URLR,403.3, hit,1,0
563,4, T_Scon, T_Scon_URLR,398.8, hit,1,0
564,4, T_Scon, T_Scon_DGRG,394.1, hit,2,0
565,4, T_Sinc, T_Sinc_DRLR,517.6, hit,1,0
566,4, T_Sinc, T_Sinc_DRLR,369.1, hit,1,0
567,4, T_Scon, T_Scon_DGRG,436.5, hit,2,0
568,4, T_Scon, T_Scon_URLR,423.9, hit,1,0
569,4, T_Scon, T_Scon_URLR,351.3, hit,1,0
570,4, T_Scon, T_Scon_DGRG,342.8, hit,2,0
571,4, T_Scon, T_Scon_DGRG,354.3, hit,2,0
572,4, T_Sinc, T_Sinc_DRLR,345.6, hit,1,0
573,4, T_Scon, T_Scon_URLR,389.1, hit,1,0
574,4, T_Scon, T_Scon_DGRG,368.6, hit,2,0
575,4, T_Scon, T_Scon_URLR,467.9, hit,1,0
576,4, T_Sinc, T_Sinc_DRLR,595.4, hit,1,0
577,5, T_Scon, T_Scon_URLR,487.7, hit,1,0
578,5, T_Sinc, T_Sinc_UGRG,415.2, hit,2,0
579,5, T_Scon, T_Scon_URLR,442.5, hit,1,0
580,5, T_Scon, T_Scon_URLR,330, hit,1,0
581,5, T_Sinc, T_Sinc_UGRG,453.5, hit,2,0
582,5, T_Scon, T_Scon_DGRG,428.9, hit,2,0
583,5, T_Scon, T_Scon_DGRG,368.3, hit,2,0
584,5, T_Scon, T_Scon_URLR,371.8, hit,1,0
585,5, T_Sinc, T_Sinc_UGRG,451.2, hit,2,0
586,5, T_Scon, T_Scon_URLR,398.6, hit,1,0
587,5, T_Scon, T_Scon_DGRG,498.1, hit,2,0
588,5, T_Sinc, T_Sinc_UGRG,365.5, hit,2,0
589,5, T_Sinc, T_Sinc_UGRG,392.9, hit,2,0
590,5, T_Scon, T_Scon_URLR,380.3, hit,1,0
591,5, T_Sinc, T_Sinc_DRLR,379.8, hit,1,0
592,5, T_Scon, T_Scon_DGRG,487.3, hit,2,0
593,5, T_Scon, T_Scon_DGRG,530.6, hit,2,0
594,5, T_Scon, T_Scon_DGRG,382.1, hit,2,0
595,5, T_Scon, T_Scon_URLR,409.6, hit,1,0
596,5, T_Scon, T_Scon_DGRG,525, hit,2,0
597,5, T_Scon, T_Scon_DGRG,384.5, hit,2,0
598,5, T_Scon, T_Scon_URLR,459.9, hit,1,0
599,5, T_Sinc, T_Sinc_DRLR,439.3, hit,1,0
600,5, T_Scon, T_Scon_DGRG,402.8, hit,2,0
601,5, T_Sinc, T_Sinc_UGRG,502.2, hit,2,0
602,5, T_Scon, T_Scon_URLR,433.6, hit,1,0
603,5, T_Sinc, T_Sinc_DRLR,381.1, hit,1,0
604,5, T_Scon, T_Scon_URLR,368.5, hit,1,0
605,5, T_Scon, T_Scon_URLR,340, hit,1,0
606,5, T_Scon, T_Scon_DGRG,439.4, hit,2,0
607,5, T_Scon, T_Scon_DGRG,362.8, hit,2,0
608,5, T_Sinc, T_Sinc_UGRG,374.3, hit,2,0
609,5, T_Scon, T_Scon_URLR,409.8, hit,1,0
610,5, T_Scon, T_Scon_DGRG,529.1, hit,2,0
611,5, T_Scon, T_Scon_DGRG,364.6, hit,2,0
612,5, T_Scon, T_Scon_URLR,460, hit,1,0
613,5, T_Scon, T_Scon_DGRG,483.2, hit,2,0
614,5, T_Scon, T_Scon_DGRG,398.6, hit,2,0
615,5, T_Scon, T_Scon_DGRG,394.1, hit,2,0
616,5, T_Scon, T_Scon_DGRG,377.4, hit,2,0
617,5, T_Sinc, T_Sinc_DRLR,544.9, hit,1,0
618,5, T_Scon, T_Scon_DGRG,536.4, hit,2,0
619,5, T_Scon, T_Scon_URLR,435.8, hit,1,0
620,5, T_Scon, T_Scon_URLR,431.2, hit,1,0
621,5, T_Scon, T_Scon_URLR,346.7, hit,1,0
622,5, T_Scon, T_Scon_URLR,374.1, hit,1,0
623,5, T_Scon, T_Scon_DGRG,425.6, hit,2,0
624,5, T_Scon, T_Scon_DGRG,341, hit,2,0
625,5, T_Sinc, T_Sinc_DRLR,400.4, hit,1,0
626,5, T_Scon, T_Scon_URLR,463.9, hit,1,0
627,5, T_Sinc, T_Sinc_DRLR,339.2, hit,1,0
628,5, T_Sinc, T_Sinc_UGRG,374.7, hit,2,0
629,5, T_Scon, T_Scon_DGRG,378.2, hit,2,0
630,5, T_Scon, T_Scon_URLR,353.6, hit,1,0
631,5, T_Scon, T_Scon_DGRG,445, hit,2,0
632,5, T_Scon, T_Scon_URLR,388.5, hit,1,0
633,5, T_Scon, T_Scon_URLR,375.9, hit,1,0
634,5, T_Scon, T_Scon_URLR,311.3, hit,1,0
635,5, T_Sinc, T_Sinc_DRLR,390.8, hit,1,0
636,5, T_Scon, T_Scon_URLR,358.2, hit,1,0
637,5, T_Scon, T_Scon_DGRG,393.7, hit,2,0
638,5, T_Scon, T_Scon_DGRG,445.1, hit,2,0
639,5, T_Scon, T_Scon_DGRG,336.5, hit,2,0
640,5, T_Scon, T_Scon_DGRG,368, hit,2,0
641,5, T_Scon, T_Scon_DGRG,355.4, hit,2,0
642,5, T_Sinc, T_Sinc_DRLR,510.8, hit,1,0
643,5, T_Scon, T_Scon_URLR,442.3, hit,1,0
644,5, T_Scon, T_Scon_DGRG,573.7, hit,2,0
645,5, T_Sinc, T_Sinc_DRLR,549.1, hit,1,0
646,5, T_Scon, T_Scon_URLR,668.6, hit,1,0
647,5, T_Sinc, T_Sinc_DRLR,312, hit,1,0
648,5, T_Scon, T_Scon_DGRG,491.5, hit,2,0
649,5, T_Sinc, T_Sinc_DRLR,462.6, hit,1,0
650,5, T_Scon, T_Scon_URLR,466.1, hit,1,0
651,5, T_Scon, T_Scon_DGRG,469.4, hit,2,0
652,5, T_Scon, T_Scon_URLR,428.9, hit,1,0
653,5, T_Scon, T_Scon_DGRG,492.4, hit,2,0
654,5, T_Scon, T_Scon_URLR,351.8, hit,1,0
655,5, T_Sinc, T_Sinc_UGRG,499.2, hit,2,0
656,5, T_Scon, T_Scon_DGRG,486.7, hit,2,0
657,5, T_Scon, T_Scon_DGRG,378.1, hit,2,0
658,5, T_Scon, T_Scon_URLR,353.6, hit,1,0
659,5, T_Scon, T_Scon_DGRG,429, hit,2,0
660,5, T_Scon, T_Scon_DGRG,352.4, hit,2,0
661,5, T_Scon, T_Scon_DGRG,311.9, hit,2,0
662,5, T_Scon, T_Scon_URLR,323.3, hit,1,0
663,5, T_Sinc, T_Sinc_UGRG,386.7, hit,2,0
664,5, T_Scon, T_Scon_DGRG,342.2, hit,2,0
665,5, T_Scon, T_Scon_DGRG,301.6, hit,2,0
666,5, T_Scon, T_Scon_DGRG,317, hit,2,0
667,5, T_Sinc, T_Sinc_DRLR,380.5, hit,1,0
668,5, T_Sinc, T_Sinc_UGRG,363.9, hit,2,0
669,5, T_Scon, T_Scon_URLR,431.4, hit,1,0
670,5, T_Scon, T_Scon_DGRG,338.9, hit,2,0
671,5, T_Scon, T_Scon_URLR,462.2, hit,1,0
672,5, T_Sinc, T_Sinc_UGRG,553.7, hit,2,0
673,5, T_Scon, T_Scon_URLR,397.1, hit,1,0
674,5, T_Scon, T_Scon_DGRG,400.6, hit,2,0
675,5, T_Sinc, T_Sinc_DRLR,556, hit,1,0
676,5, T_Sinc, T_Sinc_UGRG,371.4, hit,2,0
677,5, T_Scon, T_Scon_DGRG,346.9, hit,2,0
678,5, T_Scon, T_Scon_URLR,390.3, hit,1,0
679,5, T_Scon, T_Scon_DGRG,369.7, hit,2,0
680,5, T_Scon, T_Scon_URLR,405.2, hit,1,0
681,5, T_Scon, T_Scon_DGRG,344.7, hit,2,0
682,5, T_Scon, T_Scon_URLR,404, hit,1,0
683,5, T_Scon, T_Scon_URLR,395.5, hit,1,0
684,5, T_Sinc, T_Sinc_UGRG,419, hit,2,0
685,5, T_Scon, T_Scon_URLR,538.1, hit,1,0
686,5, T_Sinc, T_Sinc_DRLR,485.5, hit,1,0
687,5, T_Scon, T_Scon_DGRG,449, hit,2,0
688,5, T_Scon, T_Scon_URLR,388.4, hit,1,0
689,5, T_Scon, T_Scon_URLR,379.8, hit,1,0
690,5, T_Scon, T_Scon_URLR,367.3, hit,1,0
691,5, T_Scon, T_Scon_URLR,330.6, hit,1,0
692,5, T_Scon, T_Scon_URLR,362.1, hit,1,0
693,5, T_Sinc, T_Sinc_DRLR,441.6, hit,1,0
694,5, T_Sinc, T_Sinc_DRLR,421, hit,1,0
695,5, T_Scon, T_Scon_DGRG,488.4, hit,2,0
696,5, T_Scon, T_Scon_DGRG,419.9, hit,2,0
697,5, T_Sinc, T_Sinc_UGRG,387.3, hit,2,0
698,5, T_Sinc, T_Sinc_DRLR,358.7, hit,1,0
699,5, T_Scon, T_Scon_DGRG,478.2, hit,2,0
700,5, T_Scon, T_Scon_URLR,557.6, hit,1,0
701,5, T_Sinc, T_Sinc_UGRG,417.1, hit,2,0
702,5, T_Sinc, T_Sinc_DRLR,472.5, hit,1,0
703,5, T_Scon, T_Scon_DGRG,467.9, hit,2,0
704,5, T_Scon, T_Scon_DGRG,363.4, hit,2,0
705,5, T_Scon, T_Scon_URLR,726.8, hit,1,2
706,5, T_Scon, T_Scon_URLR,370.2, hit,1,0
707,5, T_Scon, T_Scon_DGRG,373.7, hit,2,0
708,5, T_Scon, T_Scon_URLR,325.2, hit,1,0
709,5, T_Scon, T_Scon_URLR,416.6, hit,1,0
710,5, T_Scon, T_Scon_URLR,356, hit,1,0
711,5, T_Scon, T_Scon_URLR,347.4, hit,1,0
712,5, T_Sinc, T_Sinc_UGRG,558.9, hit,2,0
713,5, T_Scon, T_Scon_DGRG,414.4, hit,2,0
714,5, T_Scon, T_Scon_URLR,409.7, hit,1,0
715,5, T_Scon, T_Scon_DGRG,373.2, hit,2,0
716,5, T_Sinc, T_Sinc_UGRG,424.6, hit,2,0
717,5, T_Scon, T_Scon_URLR,424.1, hit,1,0
718,5, T_Scon, T_Scon_URLR,351.5, hit,1,0
719,5, T_Scon, T_Scon_URLR,510.9, hit,1,0
720,5, T_Scon, T_Scon_DGRG,434.4, hit,2,0
721,6, T_Sinc, T_Sinc_UGRG,414.4, hit,2,0
722,6, T_Scon, T_Scon_DGRG,381.9, hit,2,0
723,6, T_Sinc, T_Sinc_DRLR,377.2, hit,1,0
724,6, T_Scon, T_Scon_URLR,364.7, hit,1,0
725,6, T_Scon, T_Scon_DGRG,428.1, hit,2,0
726,6, T_Scon, T_Scon_DGRG,347.6, hit,2,0
727,6, T_Scon, T_Scon_DGRG,359, hit,2,0
728,6, T_Scon, T_Scon_DGRG,342.4, hit,2,0
729,6, T_Sinc, T_Sinc_DRLR,389.9, hit,1,0
730,6, T_Scon, T_Scon_URLR,393.3, hit,1,0
731,6, T_Scon, T_Scon_URLR,328.7, hit,1,0
732,6, T_Scon, T_Scon_DGRG,412.2, hit,2,0
733,6, T_Sinc, T_Sinc_DRLR,379.6, hit,1,0
734,6, T_Scon, T_Scon_URLR,355.1, hit,1,0
735,6, T_Scon, T_Scon_DGRG,342.5, hit,2,0
736,6, T_Scon, T_Scon_URLR,438, hit,1,0
737,6, T_Scon, T_Scon_DGRG,369.4, hit,2,0
738,6, T_Scon, T_Scon_DGRG,464.9, hit,2,0
739,6, T_Scon, T_Scon_URLR,396.2, hit,1,0
740,6, T_Scon, T_Scon_URLR,379.7, hit,1,0
741,6, T_Scon, T_Scon_URLR,383.2, hit,1,0
742,6, T_Sinc, T_Sinc_UGRG,446.5, hit,2,0
743,6, T_Scon, T_Scon_DGRG,394, hit,2,0
744,6, T_Sinc, T_Sinc_UGRG,357.5, hit,2,0
745,6, T_Sinc, T_Sinc_UGRG,328.8, hit,2,0
746,6, T_Scon, T_Scon_DGRG,316.3, hit,2,0
747,6, T_Scon, T_Scon_DGRG,351.8, hit,2,0
748,6, T_Scon, T_Scon_URLR,379.2, hit,1,0
749,6, T_Scon, T_Scon_DGRG,438.7, hit,2,0
750,6, T_Sinc, T_Sinc_DRLR,494, hit,1,0
751,6, T_Scon, T_Scon_DGRG,389.5, hit,2,0
752,6, T_Scon, T_Scon_URLR,537, hit,1,0
753,6, T_Sinc, T_Sinc_UGRG,412.5, hit,2,0
754,6, T_Scon, T_Scon_DGRG,519.8, hit,2,0
755,6, T_Scon, T_Scon_DGRG,443.3, hit,2,0
756,6, T_Scon, T_Scon_DGRG,366.7, hit,2,0
757,6, T_Scon, T_Scon_URLR,549.9, hit,1,0
758,6, T_Sinc, T_Sinc_UGRG,413.3, hit,2,0
759,6, T_Scon, T_Scon_URLR,508.8, hit,1,0
760,6, T_Sinc, T_Sinc_UGRG,480.1, hit,2,0
761,6, T_Sinc, T_Sinc_UGRG,379.6, hit,2,0
762,6, T_Scon, T_Scon_URLR,463.1, hit,1,0
763,6, T_Scon, T_Scon_DGRG,474.5, hit,2,0
764,6, T_Scon, T_Scon_URLR,389.9, hit,1,0
765,6, T_Scon, T_Scon_DGRG,489.3, hit,2,0
766,6, T_Scon, T_Scon_URLR,868.8, hit,1,2
767,6, T_Scon, T_Scon_DGRG,372.3, hit,2,0
768,6, T_Scon, T_Scon_URLR,327.6, hit,1,0
769,6, T_Scon, T_Scon_URLR,363.1, hit,1,0
770,6, T_Sinc, T_Sinc_DRLR,358.6, hit,1,0
771,6, T_Sinc, T_Sinc_UGRG,378, hit,2,0
772,6, T_Scon, T_Scon_URLR,397.4, hit,1,0
773,6, T_Scon, T_Scon_DGRG,372.9, hit,2,0
774,6, T_Scon, T_Scon_DGRG,368.3, hit,2,0
775,6, T_Scon, T_Scon_DGRG,311.7, hit,2,0
776,6, T_Scon, T_Scon_URLR,347.1, hit,1,0
777,6, T_Scon, T_Scon_URLR,350.6, hit,1,0
778,6, T_Sinc, T_Sinc_UGRG,362, hit,2,0
779,6, T_Scon, T_Scon_URLR,333.5, hit,1,0
780,6, T_Scon, T_Scon_URLR,324.9, hit,1,0
781,6, T_Scon, T_Scon_DGRG,364.4, hit,2,0
782,6, T_Scon, T_Scon_DGRG,375.8, hit,2,0
783,6, T_Scon, T_Scon_DGRG,379.2, hit,2,0
784,6, T_Sinc, T_Sinc_UGRG,542.7, hit,2,0
785,6, T_Scon, T_Scon_DGRG,370.1, hit,2,0
786,6, T_Scon, T_Scon_DGRG,373.5, hit,2,0
787,6, T_Scon, T_Scon_URLR,321, hit,1,0
788,6, T_Scon, T_Scon_URLR,344.4, hit,1,0
789,6, T_Scon, T_Scon_URLR,291.8, hit,1,0
790,6, T_Scon, T_Scon_DGRG,319.3, hit,2,0
791,6, T_Scon, T_Scon_DGRG,318.7, hit,2,0
792,6, T_Scon, T_Scon_URLR,534.2, hit,1,0
793,6, T_Scon, T_Scon_URLR,577.3, hit,1,0
794,6, T_Sinc, T_Sinc_DRLR,452.8, hit,1,0
795,6, T_Scon, T_Scon_URLR,408.2, hit,1,0
796,6, T_Sinc, T_Sinc_DRLR,419.6, hit,1,0
797,6, T_Scon, T_Scon_DGRG,503.1, hit,2,0
798,6, T_Scon, T_Scon_URLR,394.5, hit,1,0
799,6, T_Sinc, T_Sinc_UGRG,429.9, hit,2,0
800,6, T_Sinc, T_Sinc_UGRG,421.3, hit,2,0
801,6, T_Scon, T_Scon_DGRG,344.8, hit,2,0
802,6, T_Scon, T_Scon_URLR,364.3, hit,1,0
803,6, T_Sinc, T_Sinc_DRLR,375.6, hit,1,0
804,6, T_Sinc, T_Sinc_UGRG,379.1, hit,2,0
805,6, T_Scon, T_Scon_URLR,422.6, hit,1,0
806,6, T_Scon, T_Scon_URLR,602, hit,1,0
807,6, T_Scon, T_Scon_DGRG,437.4, hit,2,0
808,6, T_Scon, T_Scon_URLR,472.9, incorrect,2,1
809,6, T_Scon, T_Scon_DGRG,316.3, hit,2,0
810,6, T_Scon, T_Scon_URLR,387.8, incorrect,2,1
811,6, T_Scon, T_Scon_URLR,475.1, hit,1,0
812,6, T_Scon, T_Scon_DGRG,438.6, hit,2,0
813,6, T_Scon, T_Scon_DGRG,422.1, hit,2,0
814,6, T_Sinc, T_Sinc_DRLR,537.5, hit,1,0
815,6, T_Sinc, T_Sinc_DRLR,380.9, hit,1,0
816,6, T_Scon, T_Scon_DGRG,508.4, hit,2,0
817,6, T_Sinc, T_Sinc_DRLR,471.8, hit,1,0
818,6, T_Sinc, T_Sinc_UGRG,615.2, hit,2,0
819,6, T_Scon, T_Scon_DGRG,426.7, hit,2,0
820,6, T_Scon, T_Scon_DGRG,350.1, hit,2,0
821,6, T_Scon, T_Scon_URLR,441.6, hit,1,0
822,6, T_Scon, T_Scon_URLR,377, hit,1,0
823,6, T_Scon, T_Scon_URLR,312.4, hit,1,0
824,6, T_Scon, T_Scon_URLR,347.9, hit,1,0
825,6, T_Scon, T_Scon_URLR,327.3, hit,1,0
826,6, T_Scon, T_Scon_DGRG,422.7, hit,2,0
827,6, T_Scon, T_Scon_DGRG,358.2, hit,2,0
828,6, T_Scon, T_Scon_DGRG,353.6, hit,2,0
829,6, T_Scon, T_Scon_DGRG,360.8, hit,2,0
830,6, T_Scon, T_Scon_URLR,364.2, hit,1,0
831,6, T_Scon, T_Scon_URLR,339.7, hit,1,0
832,6, T_Scon, T_Scon_URLR,351, hit,1,0
833,6, T_Scon, T_Scon_URLR,334.5, hit,1,0
834,6, T_Sinc, T_Sinc_UGRG,497.9, hit,2,0
835,6, T_Scon, T_Scon_URLR,361.4, hit,1,0
836,6, T_Scon, T_Scon_DGRG,580.8, hit,2,0
837,6, T_Scon, T_Scon_DGRG,424.3, hit,2,0
838,6, T_Sinc, T_Sinc_DRLR,419.7, incorrect,2,1
839,6, T_Scon, T_Scon_URLR,379.2, hit,1,0
840,6, T_Scon, T_Scon_DGRG,534.5, hit,2,0
841,6, T_Scon, T_Scon_URLR,570, hit,1,0
842,6, T_Sinc, T_Sinc_UGRG,481.5, hit,2,0
843,6, T_Scon, T_Scon_URLR,524.9, hit,1,0
844,6, T_Sinc, T_Sinc_DRLR,536.3, hit,1,0
845,6, T_Scon, T_Scon_DGRG,635.8, hit,2,0
846,6, T_Scon, T_Scon_URLR,523.2, hit,1,0
847,6, T_Sinc, T_Sinc_UGRG,586.7, hit,2,0
848,6, T_Scon, T_Scon_DGRG,522.1, hit,2,0
849,6, T_Scon, T_Scon_DGRG,357.5, hit,2,0
850,6, T_Scon, T_Scon_DGRG,357, hit,2,0
851,6, T_Scon, T_Scon_DGRG,348.3, hit,2,0
852,6, T_Scon, T_Scon_DGRG,391.8, hit,2,0
853,6, T_Sinc, T_Sinc_DRLR,387.3, hit,1,0
854,6, T_Sinc, T_Sinc_DRLR,478.6, hit,1,0
855,6, T_Scon, T_Scon_URLR,430.1, hit,1,0
856,6, T_Sinc, T_Sinc_DRLR,377.6, hit,1,0
857,6, T_Scon, T_Scon_DGRG,461, hit,2,0
858,6, T_Sinc, T_Sinc_DRLR,416.4, hit,1,0
859,6, T_Scon, T_Scon_URLR,431.9, hit,1,0
860,6, T_Scon, T_Scon_URLR,355.3, hit,1,0
861,6, T_Scon, T_Scon_URLR,318.8, hit,1,0
862,6, T_Scon, T_Scon_URLR,406.2, hit,1,0
863,6, T_Sinc, T_Sinc_DRLR,433.6, hit,1,0
864,6, T_Scon, T_Scon_DGRG,397.1, hit,2,0
865,7, T_Sinc, T_Sinc_UGRG,451.1, hit,2,0
866,7, T_Sinc, T_Sinc_UGRG,322.4, hit,2,0
867,7, T_Scon, T_Scon_URLR,477.9, hit,1,0
868,7, T_Sinc, T_Sinc_DRLR,441.4, hit,1,0
869,7, T_Scon, T_Scon_URLR,324.8, hit,1,0
870,7, T_Sinc, T_Sinc_DRLR,388.2, hit,1,0
871,7, T_Sinc, T_Sinc_DRLR,411.6, hit,1,0
872,7, T_Sinc, T_Sinc_DRLR,363.1, hit,1,0
873,7, T_Scon, T_Scon_DGRG,418.6, incorrect,1,1
874,7, T_Scon, T_Scon_DGRG,501.9, hit,2,0
875,7, T_Sinc, T_Sinc_DRLR,481.4, hit,1,0
876,7, T_Sinc, T_Sinc_UGRG,452.9, hit,2,0
877,7, T_Sinc, T_Sinc_DRLR,528.3, hit,1,0
878,7, T_Scon, T_Scon_URLR,375.7, hit,1,0
879,7, T_Sinc, T_Sinc_UGRG,703.1, hit,2,2
880,7, T_Sinc, T_Sinc_UGRG,386.6, hit,2,0
881,7, T_Sinc, T_Sinc_UGRG,422.1, hit,2,0
882,7, T_Scon, T_Scon_DGRG,433.4, hit,2,0
883,7, T_Sinc, T_Sinc_DRLR,548.9, hit,1,0
884,7, T_Sinc, T_Sinc_UGRG,440.4, hit,2,0
885,7, T_Sinc, T_Sinc_UGRG,343.8, hit,2,0
886,7, T_Sinc, T_Sinc_DRLR,363.2, hit,1,0
887,7, T_Sinc, T_Sinc_DRLR,342.7, hit,1,0
888,7, T_Sinc, T_Sinc_UGRG,346.1, hit,2,0
889,7, T_Sinc, T_Sinc_UGRG,305.6, hit,2,0
890,7, T_Sinc, T_Sinc_DRLR,341, hit,1,0
891,7, T_Sinc, T_Sinc_UGRG,352.4, hit,2,0
892,7, T_Sinc, T_Sinc_DRLR,435.8, hit,1,0
893,7, T_Scon, T_Scon_URLR,383.3, hit,1,0
894,7, T_Scon, T_Scon_URLR,338.7, hit,1,0
895,7, T_Sinc, T_Sinc_UGRG,762.2, hit,2,2
896,7, T_Scon, T_Scon_DGRG,569.5, hit,2,0
897,7, T_Sinc, T_Sinc_DRLR,485, hit,1,0
898,7, T_Sinc, T_Sinc_UGRG,416.5, hit,2,0
899,7, T_Scon, T_Scon_URLR,415.9, hit,1,0
900,7, T_Sinc, T_Sinc_UGRG,379.3, hit,2,0
901,7, T_Sinc, T_Sinc_DRLR,478.6, hit,1,0
902,7, T_Scon, T_Scon_URLR,417.9, hit,1,0
903,7, T_Sinc, T_Sinc_DRLR,333.3, hit,1,0
904,7, T_Sinc, T_Sinc_DRLR,408.8, hit,1,0
905,7, T_Sinc, T_Sinc_DRLR,340.2, hit,1,0
906,7, T_Sinc, T_Sinc_DRLR,347.6, hit,1,0
907,7, T_Sinc, T_Sinc_DRLR,343.1, hit,1,0
908,7, T_Sinc, T_Sinc_UGRG,450.6, hit,2,0
909,7, T_Sinc, T_Sinc_DRLR,373.9, hit,1,0
910,7, T_Scon, T_Scon_DGRG,573.4, hit,2,0
911,7, T_Sinc, T_Sinc_UGRG,364.9, hit,2,0
912,7, T_Sinc, T_Sinc_UGRG,324.2, hit,2,0
913,7, T_Sinc, T_Sinc_UGRG,355.7, hit,2,0
914,7, T_Sinc, T_Sinc_UGRG,351.2, hit,2,0
915,7, T_Scon, T_Scon_DGRG,610.6, hit,2,0
916,7, T_Sinc, T_Sinc_UGRG,318, hit,2,0
917,7, T_Scon, T_Scon_URLR,401.4, hit,1,0
918,7, T_Scon, T_Scon_URLR,332.9, hit,1,0
919,7, T_Sinc, T_Sinc_DRLR,504.4, hit,1,0
920,7, T_Sinc, T_Sinc_UGRG,387.7, hit,2,0
921,7, T_Sinc, T_Sinc_DRLR,503.2, hit,1,0
922,7, T_Sinc, T_Sinc_UGRG,630.7, hit,2,0
923,7, T_Scon, T_Scon_URLR,366.1, hit,1,0
924,7, T_Sinc, T_Sinc_UGRG,353.5, hit,2,0
925,7, T_Sinc, T_Sinc_UGRG,405, hit,2,0
926,7, T_Sinc, T_Sinc_UGRG,340.4, hit,2,0
927,7, T_Scon, T_Scon_DGRG,463.9, hit,2,0
928,7, T_Scon, T_Scon_URLR,399.2, hit,1,0
929,7, T_Scon, T_Scon_DGRG,458.7, hit,2,0
930,7, T_Sinc, T_Sinc_UGRG,362.2, hit,2,0
931,7, T_Sinc, T_Sinc_DRLR,597.6, hit,1,0
932,7, T_Scon, T_Scon_URLR,381, hit,1,0
933,7, T_Scon, T_Scon_DGRG,464.5, hit,2,0
934,7, T_Sinc, T_Sinc_UGRG,380, hit,2,0
935,7, T_Sinc, T_Sinc_UGRG,351.4, hit,2,0
936,7, T_Scon, T_Scon_DGRG,450.8, hit,2,0
937,7, T_Sinc, T_Sinc_DRLR,534, hit,1,0
938,7, T_Sinc, T_Sinc_DRLR,345.4, hit,1,0
939,7, T_Sinc, T_Sinc_UGRG,416.8, hit,2,0
940,7, T_Sinc, T_Sinc_DRLR,412.3, hit,1,0
941,7, T_Sinc, T_Sinc_DRLR,563.7, hit,1,0
942,7, T_Sinc, T_Sinc_DRLR,431.1, hit,1,0
943,7, T_Scon, T_Scon_URLR,490.5, hit,1,0
944,7, T_Sinc, T_Sinc_UGRG,398, hit,2,0
945,7, T_Sinc, T_Sinc_UGRG,361.5, hit,2,0
946,7, T_Sinc, T_Sinc_UGRG,332.8, hit,2,0
947,7, T_Sinc, T_Sinc_UGRG,384.3, hit,2,0
948,7, T_Sinc, T_Sinc_DRLR,795.7, hit,1,2
949,7, T_Sinc, T_Sinc_UGRG,343.2, hit,2,0
950,7, T_Sinc, T_Sinc_DRLR,358.6, hit,1,0
951,7, T_Sinc, T_Sinc_DRLR,386.1, hit,1,0
952,7, T_Sinc, T_Sinc_UGRG,313.5, hit,2,0
953,7, T_Sinc, T_Sinc_DRLR,352.9, hit,1,0
954,7, T_Scon, T_Scon_DGRG,564.3, hit,2,0
955,7, T_Sinc, T_Sinc_UGRG,367.8, hit,2,0
956,7, T_Scon, T_Scon_DGRG,451.3, hit,2,0
957,7, T_Sinc, T_Sinc_DRLR,690.6, hit,1,2
958,7, T_Sinc, T_Sinc_DRLR,402.1, hit,1,0
959,7, T_Scon, T_Scon_URLR,433.6, hit,1,0
960,7, T_Sinc, T_Sinc_DRLR,356.9, hit,1,0
961,7, T_Sinc, T_Sinc_UGRG,356.4, hit,2,0
962,7, T_Sinc, T_Sinc_DRLR,395.9, hit,1,0
963,7, T_Scon, T_Scon_DGRG,503.3, hit,2,0
964,7, T_Sinc, T_Sinc_DRLR,398.7, hit,1,0
965,7, T_Sinc, T_Sinc_DRLR,402.2, hit,1,0
966,7, T_Sinc, T_Sinc_UGRG,349.6, hit,2,0
967,7, T_Sinc, T_Sinc_UGRG,561, hit,2,0
968,7, T_Sinc, T_Sinc_UGRG,348.5, hit,2,0
969,7, T_Sinc, T_Sinc_UGRG,343.9, hit,2,0
970,7, T_Sinc, T_Sinc_DRLR,459.4, hit,1,0
971,7, T_Sinc, T_Sinc_DRLR,834.7, hit,1,2
972,7, T_Sinc, T_Sinc_UGRG,442.2, hit,2,0
973,7, T_Sinc, T_Sinc_DRLR,389.5, hit,1,0
974,7, T_Scon, T_Scon_DGRG,644.8, hit,2,0
975,7, T_Sinc, T_Sinc_DRLR,368.2, hit,1,0
976,7, T_Sinc, T_Sinc_UGRG,347.7, hit,2,0
977,7, T_Scon, T_Scon_URLR,579.1, hit,1,0
978,7, T_Sinc, T_Sinc_UGRG,390.5, hit,2,0
979,7, T_Sinc, T_Sinc_UGRG,326, hit,2,0
980,7, T_Scon, T_Scon_URLR,405.5, hit,1,0
981,7, T_Scon, T_Scon_URLR,352.9, hit,1,0
982,7, T_Sinc, T_Sinc_DRLR,500.3, hit,1,0
983,7, T_Sinc, T_Sinc_DRLR,335.8, hit,1,0
984,7, T_Sinc, T_Sinc_DRLR,307.2, hit,1,0
985,7, T_Sinc, T_Sinc_DRLR,326.6, hit,1,0
986,7, T_Sinc, T_Sinc_DRLR,322.1, hit,1,0
987,7, T_Sinc, T_Sinc_DRLR,309.5, hit,1,0
988,7, T_Sinc, T_Sinc_UGRG,320.9, hit,2,0
989,7, T_Sinc, T_Sinc_UGRG,332.4, hit,2,0
990,7, T_Scon, T_Scon_DGRG,363.8, hit,2,0
991,7, T_Sinc, T_Sinc_UGRG,347.3, hit,2,0
992,7, T_Sinc, T_Sinc_DRLR,418.6, hit,1,0
993,7, T_Sinc, T_Sinc_DRLR,414.1, hit,1,0
994,7, T_Sinc, T_Sinc_DRLR,313.6, hit,1,0
995,7, T_Sinc, T_Sinc_UGRG,437, hit,2,0
996,7, T_Sinc, T_Sinc_DRLR,392.4, hit,1,0
997,7, T_Sinc, T_Sinc_DRLR,359.9, hit,1,0
998,7, T_Scon, T_Scon_DGRG,623.3, hit,2,0
999,7, T_Sinc, T_Sinc_UGRG,426.8, hit,2,0
1000,7, T_Sinc, T_Sinc_DRLR,358.1, hit,1,0
1001,7, T_Scon, T_Scon_URLR,321.6, incorrect,2,1
1002,7, T_Scon, T_Scon_DGRG,533.1, hit,2,0
1003,7, T_Sinc, T_Sinc_DRLR,432.5, hit,1,0
1004,7, T_Scon, T_Scon_DGRG,515.9, hit,2,0
1005,7, T_Sinc, T_Sinc_UGRG,559.4, hit,2,0
1006,7, T_Sinc, T_Sinc_UGRG,314.8, hit,2,0
1007,7, T_Sinc, T_Sinc_UGRG,374.3, hit,2,0
1008,7, T_Sinc, T_Sinc_UGRG,377.7, hit,2,0
1009,8, T_Sinc, T_Sinc_UGRG,396.1, hit,2,0
1010,8, T_Sinc, T_Sinc_UGRG,339.5, hit,2,0
1011,8, T_Sinc, T_Sinc_DRLR,374.9, hit,1,0
1012,8, T_Sinc, T_Sinc_DRLR,346.4, hit,1,0
1013,8, T_Scon, T_Scon_DGRG,413.9, hit,2,0
1014,8, T_Sinc, T_Sinc_UGRG,365.3, hit,2,0
1015,8, T_Scon, T_Scon_URLR,416.7, hit,1,0
1016,8, T_Sinc, T_Sinc_DRLR,380.1, hit,1,0
1017,8, T_Scon, T_Scon_URLR,419.6, hit,1,0
1018,8, T_Sinc, T_Sinc_UGRG,387.1, hit,2,0
1019,8, T_Sinc, T_Sinc_DRLR,374.4, hit,1,0
1020,8, T_Sinc, T_Sinc_DRLR,357.9, hit,1,0
1021,8, T_Sinc, T_Sinc_DRLR,393.4, hit,1,0
1022,8, T_Sinc, T_Sinc_UGRG,484.7, hit,2,0
1023,8, T_Sinc, T_Sinc_DRLR,520.2, hit,1,0
1024,8, T_Sinc, T_Sinc_DRLR,367.6, hit,1,0
1025,8, T_Sinc, T_Sinc_DRLR,315.1, hit,1,0
1026,8, T_Scon, T_Scon_URLR,358.5, hit,1,0
1027,8, T_Sinc, T_Sinc_DRLR,625.9, hit,1,0
1028,8, T_Sinc, T_Sinc_DRLR,341.4, hit,1,0
1029,8, T_Scon, T_Scon_DGRG,528.9, hit,2,0
1030,8, T_Sinc, T_Sinc_DRLR,364.3, hit,1,0
1031,8, T_Sinc, T_Sinc_DRLR,415.7, hit,1,0
1032,8, T_Sinc, T_Sinc_DRLR,323.1, hit,1,0
1033,8, T_Sinc, T_Sinc_UGRG,382.6, hit,2,0
1034,8, T_Scon, T_Scon_DGRG,422.1, hit,2,0
1035,8, T_Sinc, T_Sinc_DRLR,385.5, hit,1,0
1036,8, T_Scon, T_Scon_URLR,440.9, hit,1,0
1037,8, T_Sinc, T_Sinc_UGRG,488.4, hit,2,0
1038,8, T_Scon, T_Scon_DGRG,367.7, hit,2,0
1039,8, T_Scon, T_Scon_URLR,499.2, hit,1,0
1040,8, T_Sinc, T_Sinc_DRLR,330.7, hit,1,0
1041,8, T_Sinc, T_Sinc_UGRG,346.1, hit,2,0
1042,8, T_Sinc, T_Sinc_UGRG,365.5, hit,2,0
1043,8, T_Scon, T_Scon_DGRG,405, hit,2,0
1044,8, T_Sinc, T_Sinc_UGRG,328.4, hit,2,0
1045,8, T_Sinc, T_Sinc_UGRG,399.6, hit,2,0
1046,8, T_Sinc, T_Sinc_DRLR,363, hit,1,0
1047,8, T_Sinc, T_Sinc_DRLR,330.5, hit,1,0
1048,8, T_Sinc, T_Sinc_DRLR,377.8, hit,1,0
1049,8, T_Scon, T_Scon_URLR,620.8, hit,1,0
1050,8, T_Sinc, T_Sinc_DRLR,360.1, hit,1,0
1051,8, T_Scon, T_Scon_DGRG,435.6, hit,2,0
1052,8, T_Sinc, T_Sinc_UGRG,323.1, hit,2,0
1053,8, T_Sinc, T_Sinc_UGRG,342.4, hit,2,0
1054,8, T_Scon, T_Scon_URLR,385.9, hit,1,0
1055,8, T_Sinc, T_Sinc_DRLR,285.3, hit,1,0
1056,8, T_Scon, T_Scon_URLR,296.8, hit,1,0
1057,8, T_Sinc, T_Sinc_UGRG,356.2, hit,2,0
1058,8, T_Sinc, T_Sinc_UGRG,407.6, hit,2,0
1059,8, T_Sinc, T_Sinc_DRLR,355.1, hit,1,0
1060,8, T_Sinc, T_Sinc_UGRG,382.6, hit,2,0
1061,8, T_Sinc, T_Sinc_UGRG,369.9, hit,2,0
1062,8, T_Sinc, T_Sinc_DRLR,373.4, hit,1,0
1063,8, T_Sinc, T_Sinc_UGRG,432.9, hit,2,0
1064,8, T_Sinc, T_Sinc_UGRG,416.3, hit,2,0
1065,8, T_Sinc, T_Sinc_UGRG,339.7, hit,2,0
1066,8, T_Sinc, T_Sinc_DRLR,395.2, hit,1,0
1067,8, T_Scon, T_Scon_URLR,382.6, hit,1,0
1068,8, T_Sinc, T_Sinc_DRLR,578, hit,1,0
1069,8, T_Sinc, T_Sinc_DRLR,405.4, hit,1,0
1070,8, T_Sinc, T_Sinc_UGRG,400.9, incorrect,1,1
1071,8, T_Scon, T_Scon_URLR,344.4, hit,1,0
1072,8, T_Scon, T_Scon_DGRG,363.7, incorrect,1,1
1073,8, T_Scon, T_Scon_DGRG,555.2, hit,2,0
1074,8, T_Scon, T_Scon_URLR,638.7, hit,1,0
1075,8, T_Sinc, T_Sinc_DRLR,386.1, hit,1,0
1076,8, T_Sinc, T_Sinc_UGRG,413.5, hit,2,0
1077,8, T_Sinc, T_Sinc_DRLR,801, hit,1,2
1078,8, T_Sinc, T_Sinc_DRLR,452.4, hit,1,0
1079,8, T_Sinc, T_Sinc_DRLR,391.9, hit,1,0
1080,8, T_Sinc, T_Sinc_UGRG,443, hit,2,0
1081,8, T_Sinc, T_Sinc_DRLR,618.5, hit,1,0
1082,8, T_Sinc, T_Sinc_DRLR,397.9, hit,1,0
1083,8, T_Scon, T_Scon_URLR,405.3, hit,1,0
1084,8, T_Scon, T_Scon_URLR,352.8, hit,1,0
1085,8, T_Scon, T_Scon_DGRG,444.2, hit,2,0
1086,8, T_Sinc, T_Sinc_UGRG,427.6, hit,2,0
1087,8, T_Scon, T_Scon_URLR,367, hit,1,0
1088,8, T_Sinc, T_Sinc_UGRG,414.5, hit,2,0
1089,8, T_Sinc, T_Sinc_UGRG,329.9, hit,2,0
1090,8, T_Sinc, T_Sinc_DRLR,445.4, hit,1,0
1091,8, T_Scon, T_Scon_DGRG,412.8, hit,2,0
1092,8, T_Sinc, T_Sinc_UGRG,376.3, hit,2,0
1093,8, T_Sinc, T_Sinc_DRLR,511.6, hit,1,0
1094,8, T_Sinc, T_Sinc_UGRG,459.1, hit,2,0
1095,8, T_Sinc, T_Sinc_UGRG,358.6, hit,2,0
1096,8, T_Sinc, T_Sinc_DRLR,450, hit,1,0
1097,8, T_Sinc, T_Sinc_UGRG,457.4, hit,2,0
1098,8, T_Scon, T_Scon_URLR,572.8, hit,1,0
1099,8, T_Sinc, T_Sinc_DRLR,440.3, hit,1,0
1100,8, T_Sinc, T_Sinc_UGRG,355.8, hit,2,0
1101,8, T_Sinc, T_Sinc_UGRG,351.2, hit,2,0
1102,8, T_Scon, T_Scon_DGRG,362.6, hit,2,0
1103,8, T_Sinc, T_Sinc_UGRG,262.1, hit,2,0
1104,8, T_Scon, T_Scon_DGRG,301.5, hit,2,0
1105,8, T_Sinc, T_Sinc_DRLR,401, hit,1,0
1106,8, T_Sinc, T_Sinc_UGRG,376.4, hit,2,0
1107,8, T_Sinc, T_Sinc_UGRG,363.8, hit,2,0
1108,8, T_Sinc, T_Sinc_UGRG,427.3, hit,2,0
1109,8, T_Sinc, T_Sinc_DRLR,382.7, hit,1,0
1110,8, T_Sinc, T_Sinc_DRLR,362.1, hit,1,0
1111,8, T_Sinc, T_Sinc_UGRG,377.6, hit,2,0
1112,8, T_Sinc, T_Sinc_UGRG,373, hit,2,0
1113,8, T_Scon, T_Scon_DGRG,424.4, incorrect,1,1
1114,8, T_Sinc, T_Sinc_UGRG,391.9, hit,2,0
1115,8, T_Sinc, T_Sinc_DRLR,587.3, hit,1,0
1116,8, T_Scon, T_Scon_DGRG,586.5, hit,2,0
1117,8, T_Sinc, T_Sinc_DRLR,401.9, hit,1,0
1118,8, T_Sinc, T_Sinc_DRLR,541.4, hit,1,0
1119,8, T_Sinc, T_Sinc_UGRG,432.7, hit,2,0
1120,8, T_Sinc, T_Sinc_DRLR,360.2, hit,1,0
1121,8, T_Sinc, T_Sinc_UGRG,355.7, hit,2,0
1122,8, T_Sinc, T_Sinc_UGRG,347.1, hit,2,0
1123,8, T_Scon, T_Scon_URLR,470.5, hit,1,0
1124,8, T_Sinc, T_Sinc_DRLR,434, hit,1,0
1125,8, T_Sinc, T_Sinc_UGRG,389.4, hit,2,0
1126,8, T_Sinc, T_Sinc_UGRG,312.8, hit,2,0
1127,8, T_Sinc, T_Sinc_DRLR,356.2, hit,1,0
1128,8, T_Sinc, T_Sinc_UGRG,455.7, hit,2,0
1129,8, T_Sinc, T_Sinc_DRLR,467.2, hit,1,0
1130,8, T_Scon, T_Scon_URLR,486.5, hit,1,0
1131,8, T_Sinc, T_Sinc_DRLR,406, hit,1,0
1132,8, T_Sinc, T_Sinc_UGRG,385.5, hit,2,0
1133,8, T_Sinc, T_Sinc_UGRG,348.9, hit,2,0
1134,8, T_Sinc, T_Sinc_UGRG,292.3, hit,2,0
1135,8, T_Scon, T_Scon_DGRG,335.8, hit,2,0
1136,8, T_Sinc, T_Sinc_UGRG,471.2, hit,2,0
1137,8, T_Sinc, T_Sinc_UGRG,270.7, hit,2,0
1138,8, T_Sinc, T_Sinc_DRLR,294.1, hit,1,0
1139,8, T_Scon, T_Scon_URLR,441.5, hit,1,0
1140,8, T_Scon, T_Scon_DGRG,409, hit,2,0
1141,8, T_Scon, T_Scon_DGRG,344.3, hit,2,0
1142,8, T_Sinc, T_Sinc_UGRG,339.8, hit,2,0
1143,8, T_Sinc, T_Sinc_UGRG,311.3, hit,2,0
1144,8, T_Sinc, T_Sinc_DRLR,426.7, hit,1,0
1145,8, T_Sinc, T_Sinc_UGRG,362.1, hit,2,0
1146,8, T_Sinc, T_Sinc_DRLR,277.6, hit,1,0
1147,8, T_Sinc, T_Sinc_UGRG,373, hit,2,0
1148,8, T_Sinc, T_Sinc_DRLR,436.5, hit,1,0
1149,8, T_Scon, T_Scon_DGRG,375.9, hit,2,0
1150,8, T_Sinc, T_Sinc_DRLR,363.3, hit,1,0
1151,8, T_Sinc, T_Sinc_DRLR,314.8, hit,1,0
1152,9, T_Sinc, T_Sinc_UGRG,474.4, hit,2,0
1153,9, T_Sinc, T_Sinc_UGRG,285.7, hit,2,0
1154,9, T_Sinc, T_Sinc_UGRG,269.2, hit,2,0
1155,9, T_Scon, T_Scon_URLR,388.7, hit,1,0
1156,9, T_Scon, T_Scon_URLR,316.1, hit,1,0
1157,9, T_Sinc, T_Sinc_UGRG,407.5, hit,2,0
1158,9, T_Scon, T_Scon_DGRG,463, hit,2,0
1159,9, T_Sinc, T_Sinc_UGRG,334.4, hit,2,0
1160,9, T_Sinc, T_Sinc_DRLR,453.9, hit,1,0
1161,9, T_Sinc, T_Sinc_DRLR,385.2, hit,1,0
1162,9, T_Sinc, T_Sinc_UGRG,324.7, hit,2,0
1163,9, T_Sinc, T_Sinc_UGRG,340.2, hit,2,0
1164,9, T_Scon, T_Scon_URLR,375.6, hit,1,0
1165,9, T_Scon, T_Scon_URLR,331, hit,1,0
1166,9, T_Scon, T_Scon_DGRG,386.5, hit,2,0
1167,9, T_Sinc, T_Sinc_UGRG,334, hit,2,0
1168,9, T_Sinc, T_Sinc_DRLR,365.4, hit,1,0
1169,9, T_Scon, T_Scon_URLR,360.8, hit,1,0
1170,9, T_Scon, T_Scon_DGRG,384.2, hit,2,0
1171,9, T_Sinc, T_Sinc_UGRG,763.7, hit,2,2
1172,9, T_Sinc, T_Sinc_UGRG,291, hit,2,0
1173,9, T_Sinc, T_Sinc_UGRG,270.5, hit,2,0
1174,9, T_Sinc, T_Sinc_DRLR,346, hit,1,0
1175,9, T_Scon, T_Scon_DGRG,349.4, hit,2,0
1176,9, T_Sinc, T_Sinc_UGRG,376.9, hit,2,0
1177,9, T_Sinc, T_Sinc_DRLR,364.3, hit,1,0
1178,9, T_Sinc, T_Sinc_DRLR,311.7, hit,1,0
1179,9, T_Sinc, T_Sinc_UGRG,347.2, hit,2,0
1180,9, T_Sinc, T_Sinc_UGRG,354.7, hit,2,0
1181,9, T_Sinc, T_Sinc_UGRG,286, hit,2,0
1182,9, T_Sinc, T_Sinc_DRLR,345.5, hit,1,0
1183,9, T_Sinc, T_Sinc_DRLR,312.9, hit,1,0
1184,9, T_Sinc, T_Sinc_UGRG,304.3, hit,2,0
1185,9, T_Scon, T_Scon_URLR,419.8, hit,1,0
1186,9, T_Sinc, T_Sinc_UGRG,383.2, hit,2,0
1187,9, T_Scon, T_Scon_URLR,374.7, hit,1,0
1188,9, T_Sinc, T_Sinc_DRLR,597.9, hit,1,0
1189,9, T_Scon, T_Scon_DGRG,429.3, hit,2,0
1190,9, T_Sinc, T_Sinc_DRLR,360.6, hit,1,0
1191,9, T_Scon, T_Scon_URLR,396.1, hit,1,0
1192,9, T_Sinc, T_Sinc_UGRG,331.6, incorrect,1,1
1193,9, T_Sinc, T_Sinc_UGRG,499, hit,2,0
1194,9, T_Sinc, T_Sinc_DRLR,534.5, hit,1,0
1195,9, T_Sinc, T_Sinc_DRLR,381.9, hit,1,0
1196,9, T_Sinc, T_Sinc_DRLR,501.3, hit,1,0
1197,9, T_Sinc, T_Sinc_DRLR,360.8, hit,1,0
1198,9, T_Sinc, T_Sinc_DRLR,364.2, hit,1,0
1199,9, T_Scon, T_Scon_URLR,335.6, hit,1,0
1200,9, T_Sinc, T_Sinc_DRLR,295.1, hit,1,0
1201,9, T_Sinc, T_Sinc_DRLR,370.5, hit,1,0
1202,9, T_Sinc, T_Sinc_DRLR,326, hit,1,0
1203,9, T_Sinc, T_Sinc_UGRG,389.4, hit,2,0
1204,9, T_Scon, T_Scon_DGRG,356.8, hit,2,0
1205,9, T_Sinc, T_Sinc_UGRG,312.3, hit,2,0
1206,9, T_Sinc, T_Sinc_UGRG,299.7, hit,2,0
1207,9, T_Sinc, T_Sinc_DRLR,407.1, hit,1,0
1208,9, T_Sinc, T_Sinc_DRLR,322.6, hit,1,0
1209,9, T_Sinc, T_Sinc_DRLR,314.1, hit,1,0
1210,9, T_Sinc, T_Sinc_UGRG,381.4, hit,2,0
1211,9, T_Scon, T_Scon_DGRG,592.9, hit,2,0
1212,9, T_Scon, T_Scon_DGRG,328.3, hit,2,0
1213,9, T_Scon, T_Scon_DGRG,315.7, hit,2,0
1214,9, T_Sinc, T_Sinc_DRLR,439.2, hit,1,0
1215,9, T_Sinc, T_Sinc_UGRG,394.6, hit,2,0
1216,9, T_Scon, T_Scon_URLR,450.1, hit,1,0
1217,9, T_Scon, T_Scon_URLR,565.5, hit,1,0
1218,9, T_Scon, T_Scon_DGRG,440.9, hit,2,0
1219,9, T_Sinc, T_Sinc_DRLR,388.4, hit,1,0
1220,9, T_Sinc, T_Sinc_UGRG,375.8, hit,2,0
1221,9, T_Sinc, T_Sinc_DRLR,367.2, hit,1,0
1222,9, T_Scon, T_Scon_URLR,410.7, hit,1,0
1223,9, T_Sinc, T_Sinc_DRLR,374.2, hit,1,0
1224,9, T_Sinc, T_Sinc_UGRG,413.3, hit,2,0
1225,9, T_Sinc, T_Sinc_DRLR,440.7, hit,1,0
1226,9, T_Sinc, T_Sinc_UGRG,356.2, hit,2,0
1227,9, T_Sinc, T_Sinc_UGRG,339.6, hit,2,0
1228,9, T_Sinc, T_Sinc_DRLR,431, hit,1,0
1229,9, T_Sinc, T_Sinc_DRLR,422.5, hit,1,0
1230,9, T_Scon, T_Scon_DGRG,377.9, incorrect,1,1
1231,9, T_Sinc, T_Sinc_DRLR,389.3, hit,1,0
1232,9, T_Scon, T_Scon_URLR,528.8, hit,1,0
1233,9, T_Sinc, T_Sinc_DRLR,384.2, hit,1,0
1234,9, T_Sinc, T_Sinc_UGRG,459.7, hit,2,0
1235,9, T_Sinc, T_Sinc_UGRG,367, hit,2,0
1236,9, T_Sinc, T_Sinc_DRLR,358.5, hit,1,0
1237,9, T_Scon, T_Scon_DGRG,450, hit,2,0
1238,9, T_Scon, T_Scon_DGRG,353.4, hit,2,0
1239,9, T_Sinc, T_Sinc_UGRG,324.8, hit,2,0
1240,9, T_Sinc, T_Sinc_UGRG,312.3, hit,2,0
1241,9, T_Scon, T_Scon_URLR,459.6, hit,1,0
1242,9, T_Sinc, T_Sinc_DRLR,399.1, hit,1,0
1243,9, T_Sinc, T_Sinc_DRLR,330.6, hit,1,0
1244,9, T_Scon, T_Scon_DGRG,374.1, hit,2,0
1245,9, T_Sinc, T_Sinc_DRLR,457.4, hit,1,0
1246,9, T_Sinc, T_Sinc_UGRG,380.9, hit,2,0
1247,9, T_Sinc, T_Sinc_UGRG,484.3, hit,2,0
1248,9, T_Sinc, T_Sinc_DRLR,511.7, hit,1,0
1249,9, T_Sinc, T_Sinc_DRLR,367.2, hit,1,0
1250,9, T_Scon, T_Scon_URLR,498.6, hit,1,0
1251,9, T_Sinc, T_Sinc_UGRG,406, hit,2,0
1252,9, T_Scon, T_Scon_URLR,401.5, hit,1,0
1253,9, T_Sinc, T_Sinc_UGRG,384.9, hit,2,0
1254,9, T_Sinc, T_Sinc_UGRG,404.4, hit,2,0
1255,9, T_Sinc, T_Sinc_DRLR,491.8, hit,1,0
1256,9, T_Sinc, T_Sinc_DRLR,347.2, hit,1,0
1257,9, T_Sinc, T_Sinc_DRLR,366.7, hit,1,0
1258,9, T_Sinc, T_Sinc_UGRG,302.2, hit,2,0
1259,9, T_Sinc, T_Sinc_DRLR,361.5, hit,1,0
1260,9, T_Sinc, T_Sinc_UGRG,420.8, hit,2,0
1261,9, T_Sinc, T_Sinc_UGRG,320.2, hit,2,0
1262,9, T_Sinc, T_Sinc_UGRG,299.6, hit,2,0
1263,9, T_Sinc, T_Sinc_DRLR,399, hit,1,0
1264,9, T_Sinc, T_Sinc_DRLR,330.5, hit,1,0
1265,9, T_Scon, T_Scon_URLR,429.9, hit,1,0
1266,9, T_Scon, T_Scon_DGRG,361.3, hit,2,0
1267,9, T_Sinc, T_Sinc_DRLR,364.7, hit,1,0
1268,9, T_Sinc, T_Sinc_UGRG,376.2, hit,2,0
1269,9, T_Sinc, T_Sinc_DRLR,515.6, hit,1,0
1270,9, T_Sinc, T_Sinc_DRLR,399, hit,1,0
1271,9, T_Sinc, T_Sinc_DRLR,346.5, hit,1,0
1272,9, T_Sinc, T_Sinc_DRLR,313.9, hit,1,0
1273,9, T_Scon, T_Scon_DGRG,433.4, hit,2,0
1274,9, T_Sinc, T_Sinc_UGRG,340.8, hit,2,0
1275,9, T_Sinc, T_Sinc_DRLR,520.3, hit,1,0
1276,9, T_Sinc, T_Sinc_DRLR,319.6, hit,1,0
1277,9, T_Scon, T_Scon_DGRG,411.1, hit,2,0
1278,9, T_Sinc, T_Sinc_UGRG,390.6, hit,2,0
1279,9, T_Sinc, T_Sinc_DRLR,450, hit,1,0
1280,9, T_Sinc, T_Sinc_DRLR,373.4, hit,1,0
1281,9, T_Sinc, T_Sinc_UGRG,380.9, hit,2,0
1282,9, T_Sinc, T_Sinc_DRLR,308.3, hit,1,0
1283,9, T_Sinc, T_Sinc_UGRG,339.8, hit,2,0
1284,9, T_Scon, T_Scon_URLR,399.2, incorrect,2,1
1285,9, T_Sinc, T_Sinc_UGRG,390.6, hit,2,0
1286,9, T_Scon, T_Scon_DGRG,386.1, hit,2,0
1287,9, T_Sinc, T_Sinc_UGRG,305.5, hit,2,0
1288,9, T_Sinc, T_Sinc_UGRG,316.9, hit,2,0
1289,9, T_Sinc, T_Sinc_UGRG,408.4, hit,2,0
1290,9, T_Sinc, T_Sinc_UGRG,315.9, hit,2,0
1291,9, T_Sinc, T_Sinc_UGRG,327.3, hit,2,0
1292,9, T_Sinc, T_Sinc_UGRG,342.7, hit,2,0
1293,9, T_Sinc, T_Sinc_DRLR,330.1, hit,1,0
1294,9, T_Sinc, T_Sinc_UGRG,317.6, hit,2,0
1295,9, T_Sinc, T_Sinc_DRLR,329, hit,1,0
