trial_index, block, condition, full_condition_code, RT, response_type, response_key, error_outlier
1, 1, T_Sinc, T_Sinc_UGRG, 668.9, hit, 2, 0
2, 1, T_Scon, T_Scon_DGRG, 408.2, hit, 2, 0
3, 1, T_Scon, T_Scon_DGRG, 351.6, hit, 2, 0
4, 1, T_Sinc, T_Sinc_UGRG, 327.1, hit, 2, 0
5, 1, T_Sinc, T_Sinc_UGRG, 326.5, hit, 2, 0
6, 1, T_Scon, T_Scon_DGRG, 342.0, hit, 2, 0
7, 1, T_Scon, T_Scon_URLR, 473.5, hit, 1, 0
8, 1, T_Scon, T_Scon_URLR, 340.8, hit, 1, 0
9, 1, T_Scon, T_Scon_URLR, 336.3, hit, 1, 0
10, 1, T_Sinc, T_Sinc_UGRG, 419.7, hit, 2, 0
11, 1, T_Scon, T_Scon_DGRG, 439.2, hit, 2, 0
12, 1, T_Scon, T_Scon_DGRG, 314.6, hit, 2, 0
13, 1, T_Scon, T_Scon_DGRG, 302.0, hit, 2, 0
14, 1, T_Sinc, T_Sinc_UGRG, 321.4, hit, 2, 0
15, 1, T_Scon, T_Scon_URLR, 400.9, hit, 1, 0
16, 1, T_Scon, T_Scon_URLR, 300.3, hit, 1, 0
17, 1, T_Scon, T_Scon_URLR, 359.7, hit, 1, 0
18, 1, T_Sinc, T_Sinc_DRLR, 411.2, hit, 1, 0
19, 1, T_Sinc, T_Sinc_DRLR, 294.6, hit, 1, 0
20, 1, T_Scon, T_Scon_DGRG, 414.1, hit, 2, 0
21, 1, T_Scon, T_Scon_URLR, 353.5, incorrect, 2, 1
22, 1, T_Scon, T_Scon_URLR, 356.9, incorrect, 2, 1
23, 1, T_Scon, T_Scon_DGRG, 560.4, hit, 2, 0
24, 1, T_Scon, T_Scon_DGRG, 583.8, hit, 2, 0
25, 1, T_Scon, T_Scon_URLR, 455.3, hit, 1, 0
26, 1, T_Scon, T_Scon_DGRG, 378.7, hit, 2, 0
27, 1, T_Sinc, T_Sinc_DRLR, 474.1, hit, 1, 0
28, 1, T_Scon, T_Scon_DGRG, 485.6, hit, 2, 0
29, 1, T_Sinc, T_Sinc_UGRG, 649.0, hit, 2, 0
30, 1, T_Sinc, T_Sinc_DRLR, 436.4, hit, 1, 0
31, 1, T_Scon, T_Scon_DGRG, 571.9, hit, 2, 0
32, 1, T_Sinc, T_Sinc_DRLR, 359.4, hit, 1, 0
33, 1, T_Scon, T_Scon_DGRG, 534.8, hit, 2, 0
34, 1, T_Scon, T_Scon_URLR, 322.2, hit, 1, 0
35, 1, T_Scon, T_Scon_DGRG, 477.7, hit, 2, 0
36, 1, T_Scon, T_Scon_DGRG, 381.1, hit, 2, 0
37, 1, T_Sinc, T_Sinc_DRLR, 620.4, hit, 1, 0
38, 1, T_Sinc, T_Sinc_DRLR, 379.7, hit, 1, 0
39, 1, T_Scon, T_Scon_DGRG, 383.2, hit, 2, 0
40, 1, T_Sinc, T_Sinc_UGRG, 410.6, hit, 2, 0
41, 1, T_Scon, T_Scon_DGRG, 398.1, hit, 2, 0
42, 1, T_Scon, T_Scon_URLR, 401.5, hit, 1, 0
43, 1, T_Scon, T_Scon_DGRG, 364.9, hit, 2, 0
44, 1, T_Scon, T_Scon_DGRG, 352.4, hit, 2, 0
45, 1, T_Scon, T_Scon_URLR, 379.8, hit, 1, 0
46, 1, T_Scon, T_Scon_URLR, 707.3, hit, 1, 0
47, 1, T_Scon, T_Scon_URLR, 366.7, hit, 1, 0
48, 1, T_Scon, T_Scon_URLR, 382.1, hit, 1, 0
49, 1, T_Scon, T_Scon_URLR, 369.6, hit, 1, 0
50, 1, T_Scon, T_Scon_URLR, 337.0, hit, 1, 0
51, 1, T_Scon, T_Scon_URLR, 300.5, hit, 1, 0
52, 1, T_Sinc, T_Sinc_UGRG, 407.9, hit, 2, 0
53, 1, T_Scon, T_Scon_DGRG, 403.3, hit, 2, 0
54, 1, T_Sinc, T_Sinc_UGRG, 342.8, hit, 2, 0
55, 1, T_Sinc, T_Sinc_DRLR, 410.2, hit, 1, 0
56, 1, T_Scon, T_Scon_DGRG, 477.7, hit, 2, 0
57, 1, T_Scon, T_Scon_DGRG, 721.1, hit, 2, 0
58, 1, T_Scon, T_Scon_URLR, 380.5, hit, 1, 0
59, 1, T_Scon, T_Scon_URLR, 352.0, hit, 1, 0
60, 1, T_Scon, T_Scon_URLR, 511.4, hit, 1, 0
61, 1, T_Scon, T_Scon_URLR, 342.9, hit, 1, 0
62, 1, T_Scon, T_Scon_DGRG, 470.3, hit, 2, 0
63, 1, T_Scon, T_Scon_DGRG, 329.7, hit, 2, 0
64, 1, T_Scon, T_Scon_URLR, 405.2, hit, 1, 0
65, 1, T_Scon, T_Scon_DGRG, 500.6, hit, 2, 0
66, 1, T_Sinc, T_Sinc_DRLR, 868.0, hit, 1, 0
67, 1, T_Scon, T_Scon_URLR, 415.5, hit, 1, 0
68, 1, T_Scon, T_Scon_DGRG, 538.9, hit, 2, 0
69, 1, T_Scon, T_Scon_DGRG, 358.4, hit, 2, 0
70, 1, T_Scon, T_Scon_URLR, 449.8, hit, 1, 0
71, 1, T_Scon, T_Scon_DGRG, 533.2, hit, 2, 0
72, 1, T_Sinc, T_Sinc_DRLR, 536.7, hit, 1, 0
73, 1, T_Scon, T_Scon_DGRG, 791.9, hit, 2, 0
74, 1, T_Scon, T_Scon_DGRG, 307.2, hit, 2, 0
75, 1, T_Scon, T_Scon_DGRG, 298.7, hit, 2, 0
76, 1, T_Sinc, T_Sinc_UGRG, 518.2, hit, 2, 0
77, 1, T_Scon, T_Scon_URLR, 425.5, hit, 1, 0
78, 1, T_Scon, T_Scon_URLR, 365.0, hit, 1, 0
79, 1, T_Scon, T_Scon_DGRG, 416.5, hit, 2, 0
80, 1, T_Sinc, T_Sinc_DRLR, 539.9, hit, 1, 0
81, 1, T_Scon, T_Scon_DGRG, 591.3, hit, 2, 0
82, 1, T_Scon, T_Scon_DGRG, 394.8, hit, 2, 0
83, 1, T_Scon, T_Scon_URLR, 374.2, hit, 1, 0
84, 1, T_Sinc, T_Sinc_DRLR, 1257.6, hit, 1, 2
85, 1, T_Scon, T_Scon_URLR, 381.1, hit, 1, 0
86, 1, T_Scon, T_Scon_DGRG, 1000.6, hit, 2, 0
87, 1, T_Scon, T_Scon_URLR, 459.9, hit, 1, 0
88, 1, T_Scon, T_Scon_DGRG, 559.4, hit, 2, 0
89, 1, T_Sinc, T_Sinc_DRLR, 594.9, hit, 1, 0
90, 1, T_Scon, T_Scon_URLR, 542.3, hit, 1, 0
91, 1, T_Scon, T_Scon_DGRG, 345.7, hit, 2, 0
92, 1, T_Scon, T_Scon_DGRG, 685.2, incorrect, 1, 1
93, 1, T_Scon, T_Scon_DGRG, 556.5, hit, 2, 0
94, 1, T_Scon, T_Scon_DGRG, 388.0, hit, 2, 0
95, 1, T_Sinc, T_Sinc_DRLR, 483.5, hit, 1, 0
96, 1, T_Sinc, T_Sinc_UGRG, 1134.9, hit, 2, 0
97, 1, T_Scon, T_Scon_DGRG, 846.3, hit, 2, 0
98, 1, T_Scon, T_Scon_DGRG, 361.8, hit, 2, 0
99, 1, T_Scon, T_Scon_DGRG, 317.2, hit, 2, 0
100, 1, T_Sinc, T_Sinc_DRLR, 468.6, hit, 1, 0
101, 1, T_Scon, T_Scon_URLR, 376.1, hit, 1, 0
102, 1, T_Sinc, T_Sinc_DRLR, 355.5, hit, 1, 0
103, 1, T_Scon, T_Scon_URLR, 371.0, hit, 1, 0
104, 1, T_Scon, T_Scon_URLR, 366.4, hit, 1, 0
105, 1, T_Scon, T_Scon_URLR, 345.9, hit, 1, 0
106, 1, T_Scon, T_Scon_URLR, 397.3, hit, 1, 0
107, 1, T_Sinc, T_Sinc_UGRG, 560.7, hit, 2, 0
108, 1, T_Scon, T_Scon_URLR, 512.2, hit, 1, 0
109, 1, T_Sinc, T_Sinc_UGRG, 719.4, hit, 2, 0
110, 1, T_Scon, T_Scon_URLR, 486.8, hit, 1, 0
111, 1, T_Scon, T_Scon_URLR, 570.2, hit, 1, 0
112, 1, T_Scon, T_Scon_DGRG, 449.7, hit, 2, 0
113, 1, T_Scon, T_Scon_DGRG, 557.0, hit, 2, 0
114, 1, T_Sinc, T_Sinc_UGRG, 340.5, hit, 2, 0
115, 1, T_Scon, T_Scon_URLR, 424.0, hit, 1, 0
116, 1, T_Scon, T_Scon_URLR, 367.5, hit, 1, 0
117, 1, T_Scon, T_Scon_DGRG, 450.8, hit, 2, 0
118, 1, T_Sinc, T_Sinc_UGRG, 986.3, hit, 2, 0
119, 1, T_Scon, T_Scon_URLR, 529.8, hit, 1, 0
120, 1, T_Sinc, T_Sinc_DRLR, 589.1, hit, 1, 0
121, 1, T_Scon, T_Scon_URLR, 412.6, hit, 1, 0
122, 1, T_Scon, T_Scon_URLR, 316.1, hit, 1, 0
123, 1, T_Scon, T_Scon_DGRG, 519.4, hit, 2, 0
124, 1, T_Sinc, T_Sinc_UGRG, 598.9, hit, 2, 0
125, 1, T_Scon, T_Scon_DGRG, 462.4, hit, 2, 0
126, 1, T_Scon, T_Scon_URLR, 521.7, hit, 1, 0
127, 1, T_Scon, T_Scon_URLR, 549.2, hit, 1, 0
128, 1, T_Scon, T_Scon_DGRG, 584.7, hit, 2, 0
129, 1, T_Sinc, T_Sinc_DRLR, 840.2, hit, 1, 0
130, 1, T_Scon, T_Scon_DGRG, 1051.5, hit, 2, 0
131, 1, T_Scon, T_Scon_DGRG, 431.0, hit, 2, 0
132, 1, T_Scon, T_Scon_URLR, 398.5, hit, 1, 0
133, 1, T_Scon, T_Scon_DGRG, 593.8, hit, 2, 0
134, 1, T_Scon, T_Scon_URLR, 925.3, hit, 1, 0
135, 1, T_Scon, T_Scon_URLR, 604.8, hit, 1, 0
136, 1, T_Sinc, T_Sinc_UGRG, 1076.2, hit, 2, 0
137, 1, T_Scon, T_Scon_URLR, 1187.6, hit, 1, 2
138, 1, T_Scon, T_Scon_DGRG, 1087.1, hit, 2, 0
139, 1, T_Sinc, T_Sinc_UGRG, 546.6, hit, 2, 0
140, 1, T_Scon, T_Scon_URLR, 442.0, hit, 1, 0
141, 1, T_Scon, T_Scon_URLR, 657.4, hit, 1, 0
142, 1, T_Scon, T_Scon_URLR, 500.9, hit, 1, 0
143, 1, T_Scon, T_Scon_DGRG, 444.2, hit, 2, 0
144, 1, T_Scon, T_Scon_URLR, 383.7, hit, 1, 0
145, 2, T_Scon, T_Scon_DGRG, 928.6, hit, 2, 0
146, 2, T_Sinc, T_Sinc_UGRG, 380.1, hit, 2, 0
147, 2, T_Sinc, T_Sinc_UGRG, 343.4, hit, 2, 0
148, 2, T_Sinc, T_Sinc_DRLR, 458.9, hit, 1, 0
149, 2, T_Sinc, T_Sinc_UGRG, 454.4, hit, 2, 0
150, 2, T_Sinc, T_Sinc_UGRG, 353.8, hit, 2, 0
151, 2, T_Sinc, T_Sinc_DRLR, 433.2, hit, 1, 0
152, 2, T_Scon, T_Scon_URLR, 756.7, hit, 1, 0
153, 2, T_Scon, T_Scon_URLR, 328.1, hit, 1, 0
154, 2, T_Scon, T_Scon_URLR, 299.5, hit, 1, 0
155, 2, T_Sinc, T_Sinc_UGRG, 467.0, hit, 2, 0
156, 2, T_Sinc, T_Sinc_DRLR, 690.5, hit, 1, 0
157, 2, T_Scon, T_Scon_DGRG, 661.8, hit, 2, 0
158, 2, T_Scon, T_Scon_DGRG, 709.3, hit, 2, 0
159, 2, T_Scon, T_Scon_URLR, 472.8, hit, 1, 0
160, 2, T_Scon, T_Scon_DGRG, 452.1, hit, 2, 0
161, 2, T_Sinc, T_Sinc_UGRG, 1203.6, hit, 2, 2
162, 2, T_Scon, T_Scon_URLR, 491.1, hit, 1, 0
163, 2, T_Scon, T_Scon_DGRG, 678.5, hit, 2, 0
164, 2, T_Sinc, T_Sinc_DRLR, 673.9, hit, 1, 0
165, 2, T_Scon, T_Scon_URLR, 557.4, hit, 1, 0
166, 2, T_Sinc, T_Sinc_UGRG, 568.9, hit, 2, 0
167, 2, T_Scon, T_Scon_URLR, 604.2, hit, 1, 0
168, 2, T_Scon, T_Scon_URLR, 431.7, hit, 1, 0
169, 2, T_Scon, T_Scon_URLR, 383.2, hit, 1, 0
170, 2, T_Scon, T_Scon_URLR, 382.5, hit, 1, 0
171, 2, T_Scon, T_Scon_URLR, 566.0, hit, 1, 0
172, 2, T_Sinc, T_Sinc_UGRG, 481.5, hit, 2, 0
173, 2, T_Scon, T_Scon_DGRG, 548.9, hit, 2, 0
174, 2, T_Scon, T_Scon_DGRG, 388.3, hit, 2, 0
175, 2, T_Sinc, T_Sinc_DRLR, 479.8, hit, 1, 0
176, 2, T_Scon, T_Scon_DGRG, 955.3, hit, 2, 0
177, 2, T_Scon, T_Scon_DGRG, 430.6, hit, 2, 0
178, 2, T_Scon, T_Scon_DGRG, 322.1, hit, 2, 0
179, 2, T_Scon, T_Scon_DGRG, 305.5, hit, 2, 0
180, 2, T_Scon, T_Scon_DGRG, 325.0, hit, 2, 0
181, 2, T_Scon, T_Scon_DGRG, 708.2, hit, 2, 0
182, 2, T_Scon, T_Scon_DGRG, 407.6, hit, 2, 0
183, 2, T_Scon, T_Scon_DGRG, 295.0, hit, 2, 0
184, 2, T_Sinc, T_Sinc_UGRG, 482.4, hit, 2, 0
185, 2, T_Scon, T_Scon_DGRG, 357.9, hit, 2, 0
186, 2, T_Scon, T_Scon_URLR, 537.3, hit, 1, 0
187, 2, T_Scon, T_Scon_DGRG, 520.7, hit, 2, 0
188, 2, T_Scon, T_Scon_URLR, 756.2, hit, 1, 0
189, 2, T_Scon, T_Scon_URLR, 511.7, hit, 1, 0
190, 2, T_Scon, T_Scon_DGRG, 419.0, hit, 2, 0
191, 2, T_Sinc, T_Sinc_DRLR, 702.5, hit, 1, 0
192, 2, T_Sinc, T_Sinc_DRLR, 506.0, hit, 1, 0
193, 2, T_Scon, T_Scon_DGRG, 349.4, hit, 2, 0
194, 2, T_Scon, T_Scon_URLR, 404.8, hit, 1, 0
195, 2, T_Scon, T_Scon_DGRG, 840.3, hit, 2, 0
196, 2, T_Scon, T_Scon_DGRG, 431.7, hit, 2, 0
197, 2, T_Scon, T_Scon_URLR, 471.1, hit, 1, 0
198, 2, T_Scon, T_Scon_DGRG, 562.6, hit, 2, 0
199, 2, T_Scon, T_Scon_URLR, 462.1, hit, 1, 0
200, 2, T_Scon, T_Scon_DGRG, 1377.4, hit, 2, 2
201, 2, T_Sinc, T_Sinc_UGRG, 476.9, hit, 2, 0
202, 2, T_Sinc, T_Sinc_DRLR, 560.4, hit, 1, 0
203, 2, T_Sinc, T_Sinc_UGRG, 563.8, hit, 2, 0
204, 2, T_Scon, T_Scon_DGRG, 831.2, hit, 2, 0
205, 2, T_Scon, T_Scon_DGRG, 378.6, hit, 2, 0
206, 2, T_Sinc, T_Sinc_UGRG, 390.1, hit, 2, 0
207, 2, T_Scon, T_Scon_URLR, 457.5, hit, 1, 0
208, 2, T_Scon, T_Scon_DGRG, 320.9, hit, 2, 0
209, 2, T_Scon, T_Scon_URLR, 416.4, hit, 1, 0
210, 2, T_Scon, T_Scon_URLR, 515.8, hit, 1, 0
211, 2, T_Sinc, T_Sinc_DRLR, 471.3, hit, 1, 0
212, 2, T_Scon, T_Scon_URLR, 706.7, hit, 1, 0
213, 2, T_Scon, T_Scon_URLR, 426.2, hit, 1, 0
214, 2, T_Scon, T_Scon_DGRG, 541.6, hit, 2, 0
215, 2, T_Scon, T_Scon_DGRG, 517.1, hit, 2, 0
216, 2, T_Sinc, T_Sinc_DRLR, 712.5, hit, 1, 0
217, 2, T_Scon, T_Scon_URLR, 543.7, hit, 1, 0
218, 2, T_Scon, T_Scon_URLR, 367.1, hit, 1, 0
219, 2, T_Scon, T_Scon_DGRG, 430.6, hit, 2, 0
220, 2, T_Scon, T_Scon_URLR, 466.1, hit, 1, 0
221, 2, T_Scon, T_Scon_DGRG, 1297.4, hit, 2, 2
222, 2, T_Scon, T_Scon_DGRG, 324.9, hit, 2, 0
223, 2, T_Scon, T_Scon_DGRG, 288.4, hit, 2, 0
224, 2, T_Scon, T_Scon_DGRG, 359.7, hit, 2, 0
225, 2, T_Scon, T_Scon_URLR, 459.2, hit, 1, 0
226, 2, T_Scon, T_Scon_URLR, 406.7, hit, 1, 0
227, 2, T_Scon, T_Scon_DGRG, 494.0, hit, 2, 0
228, 2, T_Scon, T_Scon_URLR, 497.5, hit, 1, 0
229, 2, T_Sinc, T_Sinc_UGRG, 917.0, hit, 2, 0
230, 2, T_Scon, T_Scon_DGRG, 492.4, hit, 2, 0
231, 2, T_Scon, T_Scon_URLR, 439.8, hit, 1, 0
232, 2, T_Sinc, T_Sinc_UGRG, 675.3, hit, 2, 0
233, 2, T_Sinc, T_Sinc_DRLR, 838.7, hit, 1, 0
234, 2, T_Scon, T_Scon_DGRG, 634.1, hit, 2, 0
235, 2, T_Scon, T_Scon_URLR, 425.6, hit, 1, 0
236, 2, T_Scon, T_Scon_URLR, 449.1, hit, 1, 0
237, 2, T_Scon, T_Scon_DGRG, 480.4, hit, 2, 0
238, 2, T_Scon, T_Scon_DGRG, 443.9, hit, 2, 0
239, 2, T_Scon, T_Scon_DGRG, 447.4, hit, 2, 0
240, 2, T_Scon, T_Scon_URLR, 478.7, hit, 1, 0
241, 2, T_Scon, T_Scon_URLR, 326.2, hit, 1, 0
242, 2, T_Sinc, T_Sinc_UGRG, 589.7, hit, 2, 0
243, 2, T_Scon, T_Scon_URLR, 805.0, hit, 1, 0
244, 2, T_Sinc, T_Sinc_UGRG, 612.5, hit, 2, 0
245, 2, T_Scon, T_Scon_URLR, 640.0, hit, 1, 0
246, 2, T_Scon, T_Scon_URLR, 535.4, hit, 1, 0
247, 2, T_Scon, T_Scon_DGRG, 510.8, hit, 2, 0
248, 2, T_Sinc, T_Sinc_DRLR, 626.3, hit, 1, 0
249, 2, T_Scon, T_Scon_DGRG, 637.7, hit, 2, 0
250, 2, T_Scon, T_Scon_URLR, 601.2, hit, 1, 0
251, 2, T_Scon, T_Scon_DGRG, 576.6, hit, 2, 0
252, 2, T_Sinc, T_Sinc_DRLR, 420.0, hit, 1, 0
253, 2, T_Sinc, T_Sinc_DRLR, 611.2, hit, 1, 0
254, 2, T_Scon, T_Scon_URLR, 386.6, hit, 1, 0
255, 2, T_Scon, T_Scon_URLR, 318.1, hit, 1, 0
256, 2, T_Scon, T_Scon_URLR, 401.5, hit, 1, 0
257, 2, T_Scon, T_Scon_URLR, 284.9, hit, 1, 0
258, 2, T_Scon, T_Scon_URLR, 260.4, hit, 1, 0
259, 2, T_Scon, T_Scon_URLR, 255.9, hit, 1, 0
260, 2, T_Scon, T_Scon_DGRG, 387.3, hit, 2, 0
261, 2, T_Scon, T_Scon_DGRG, 318.7, hit, 2, 0
262, 2, T_Scon, T_Scon_DGRG, 306.2, hit, 2, 0
263, 2, T_Sinc, T_Sinc_UGRG, 501.5, hit, 2, 0
264, 2, T_Scon, T_Scon_URLR, 441.0, hit, 1, 0
265, 2, T_Sinc, T_Sinc_DRLR, 420.5, hit, 1, 0
266, 2, T_Scon, T_Scon_URLR, 371.9, hit, 1, 0
267, 2, T_Sinc, T_Sinc_DRLR, 447.3, hit, 1, 0
268, 2, T_Scon, T_Scon_DGRG, 486.8, hit, 2, 0
269, 2, T_Scon, T_Scon_DGRG, 318.2, hit, 2, 0
270, 2, T_Scon, T_Scon_DGRG, 297.7, hit, 2, 0
271, 2, T_Sinc, T_Sinc_DRLR, 453.1, hit, 1, 0
272, 2, T_Scon, T_Scon_URLR, 368.5, hit, 1, 0
273, 2, T_Scon, T_Scon_URLR, 311.9, hit, 1, 0
274, 2, T_Scon, T_Scon_DGRG, 467.4, hit, 2, 0
275, 2, T_Scon, T_Scon_URLR, 542.9, hit, 1, 0
276, 2, T_Scon, T_Scon_URLR, 354.3, hit, 1, 0
277, 2, T_Scon, T_Scon_URLR, 1057.7, hit, 1, 0
278, 2, T_Scon, T_Scon_DGRG, 553.2, hit, 2, 0
279, 2, T_Scon, T_Scon_DGRG, 356.6, hit, 2, 0
280, 2, T_Scon, T_Scon_URLR, 396.0, hit, 1, 0
281, 2, T_Scon, T_Scon_DGRG, 1263.5, hit, 2, 2
282, 2, T_Sinc, T_Sinc_DRLR, 490.9, hit, 1, 0
283, 2, T_Scon, T_Scon_URLR, 1150.3, hit, 1, 0
284, 2, T_Scon, T_Scon_URLR, 453.8, hit, 1, 0
285, 2, T_Scon, T_Scon_DGRG, 401.2, hit, 2, 0
286, 2, T_Sinc, T_Sinc_UGRG, 684.7, hit, 2, 0
287, 2, T_Scon, T_Scon_DGRG, 412.1, hit, 2, 0
288, 2, T_Scon, T_Scon_URLR, 479.5, hit, 1, 0
289, 3, T_Scon, T_Scon_URLR, 666.7, hit, 1, 0
290, 3, T_Scon, T_Scon_DGRG, 438.2, hit, 2, 0
291, 3, T_Scon, T_Scon_DGRG, 481.5, hit, 2, 0
292, 3, T_Sinc, T_Sinc_UGRG, 437.0, hit, 2, 0
293, 3, T_Sinc, T_Sinc_UGRG, 408.5, hit, 2, 0
294, 3, T_Sinc, T_Sinc_UGRG, 303.8, hit, 2, 0
295, 3, T_Scon, T_Scon_URLR, 495.3, hit, 1, 0
296, 3, T_Scon, T_Scon_DGRG, 434.8, hit, 2, 0
297, 3, T_Scon, T_Scon_DGRG, 1170.3, hit, 2, 2
298, 3, T_Scon, T_Scon_DGRG, 373.6, hit, 2, 0
299, 3, T_Sinc, T_Sinc_UGRG, 429.1, hit, 2, 0
300, 3, T_Scon, T_Scon_URLR, 504.6, hit, 1, 0
301, 3, T_Scon, T_Scon_DGRG, 407.9, hit, 2, 0
302, 3, T_Scon, T_Scon_DGRG, 815.4, hit, 2, 0
303, 3, T_Scon, T_Scon_URLR, 394.9, hit, 1, 0
304, 3, T_Sinc, T_Sinc_DRLR, 790.3, hit, 1, 0
305, 3, T_Sinc, T_Sinc_DRLR, 305.7, hit, 1, 0
306, 3, T_Scon, T_Scon_DGRG, 485.2, hit, 2, 0
307, 3, T_Scon, T_Scon_URLR, 976.5, hit, 1, 0
308, 3, T_Scon, T_Scon_URLR, 516.0, hit, 1, 0
309, 3, T_Scon, T_Scon_DGRG, 879.5, hit, 2, 0
310, 3, T_Scon, T_Scon_URLR, 499.0, hit, 1, 0
311, 3, T_Scon, T_Scon_URLR, 642.3, hit, 1, 0
312, 3, T_Scon, T_Scon_URLR, 493.8, hit, 1, 0
313, 3, T_Scon, T_Scon_URLR, 473.3, hit, 1, 0
314, 3, T_Scon, T_Scon_DGRG, 424.6, hit, 2, 0
315, 3, T_Scon, T_Scon_DGRG, 440.1, hit, 2, 0
316, 3, T_Sinc, T_Sinc_UGRG, 527.6, hit, 2, 0
317, 3, T_Scon, T_Scon_URLR, 526.9, hit, 1, 0
318, 3, T_Sinc, T_Sinc_UGRG, 522.4, hit, 2, 0
319, 3, T_Scon, T_Scon_URLR, 781.9, incorrect, 2, 1
320, 3, T_Scon, T_Scon_DGRG, 569.3, hit, 2, 0
321, 3, T_Scon, T_Scon_URLR, 928.7, hit, 1, 0
322, 3, T_Sinc, T_Sinc_DRLR, 556.2, hit, 1, 0
323, 3, T_Scon, T_Scon_URLR, 363.6, hit, 1, 0
324, 3, T_Sinc, T_Sinc_DRLR, 447.0, hit, 1, 0
325, 3, T_Scon, T_Scon_DGRG, 822.2, hit, 2, 0
326, 3, T_Scon, T_Scon_DGRG, 401.7, hit, 2, 0
327, 3, T_Scon, T_Scon_DGRG, 353.2, hit, 2, 0
328, 3, T_Scon, T_Scon_DGRG, 284.5, hit, 2, 0
329, 3, T_Scon, T_Scon_URLR, 408.0, hit, 1, 0
330, 3, T_Scon, T_Scon_URLR, 299.4, hit, 1, 0
331, 3, T_Scon, T_Scon_DGRG, 438.8, hit, 2, 0
332, 3, T_Scon, T_Scon_DGRG, 674.3, hit, 2, 0
333, 3, T_Scon, T_Scon_URLR, 461.8, hit, 1, 0
334, 3, T_Scon, T_Scon_URLR, 481.2, hit, 1, 0
335, 3, T_Scon, T_Scon_DGRG, 544.6, hit, 2, 0
336, 3, T_Scon, T_Scon_URLR, 632.1, hit, 1, 0
337, 3, T_Scon, T_Scon_URLR, 447.6, hit, 1, 0
338, 3, T_Sinc, T_Sinc_UGRG, 694.9, hit, 2, 0
339, 3, T_Scon, T_Scon_DGRG, 442.4, hit, 2, 0
340, 3, T_Sinc, T_Sinc_UGRG, 469.8, hit, 2, 0
341, 3, T_Sinc, T_Sinc_UGRG, 417.3, hit, 2, 0
342, 3, T_Scon, T_Scon_DGRG, 444.7, hit, 2, 0
343, 3, T_Sinc, T_Sinc_UGRG, 464.2, hit, 2, 0
344, 3, T_Sinc, T_Sinc_UGRG, 343.5, hit, 2, 0
345, 3, T_Sinc, T_Sinc_DRLR, 435.0, hit, 1, 0
346, 3, T_Scon, T_Scon_URLR, 386.5, hit, 1, 0
347, 3, T_Scon, T_Scon_URLR, 341.8, hit, 1, 0
348, 3, T_Scon, T_Scon_URLR, 329.3, hit, 1, 0
349, 3, T_Scon, T_Scon_URLR, 316.8, hit, 1, 0
350, 3, T_Scon, T_Scon_DGRG, 552.2, hit, 2, 0
351, 3, T_Scon, T_Scon_DGRG, 323.6, hit, 2, 0
352, 3, T_Scon, T_Scon_URLR, 463.1, hit, 1, 0
353, 3, T_Scon, T_Scon_URLR, 1066.5, hit, 1, 0
354, 3, T_Scon, T_Scon_DGRG, 525.9, hit, 2, 0
355, 3, T_Scon, T_Scon_DGRG, 377.4, hit, 2, 0
356, 3, T_Scon, T_Scon_DGRG, 508.8, hit, 2, 0
357, 3, T_Sinc, T_Sinc_DRLR, 920.2, hit, 1, 0
358, 3, T_Scon, T_Scon_URLR, 571.7, hit, 1, 0
359, 3, T_Sinc, T_Sinc_DRLR, 699.2, hit, 1, 0
360, 3, T_Scon, T_Scon_URLR, 354.6, hit, 1, 0
361, 3, T_Scon, T_Scon_DGRG, 877.8, hit, 2, 0
362, 3, T_Sinc, T_Sinc_UGRG, 409.2, hit, 2, 0
363, 3, T_Sinc, T_Sinc_DRLR, 632.7, hit, 1, 0
364, 3, T_Scon, T_Scon_DGRG, 684.0, hit, 2, 0
365, 3, T_Scon, T_Scon_DGRG, 615.5, hit, 2, 0
366, 3, T_Scon, T_Scon_URLR, 427.0, hit, 1, 0
367, 3, T_Scon, T_Scon_URLR, 542.3, hit, 1, 0
368, 3, T_Scon, T_Scon_DGRG, 597.8, hit, 2, 0
369, 3, T_Scon, T_Scon_URLR, 501.3, hit, 1, 0
370, 3, T_Scon, T_Scon_DGRG, 1284.6, hit, 2, 2
371, 3, T_Scon, T_Scon_DGRG, 324.1, hit, 2, 0
372, 3, T_Scon, T_Scon_DGRG, 359.6, hit, 2, 0
373, 3, T_Scon, T_Scon_URLR, 475.1, hit, 1, 0
374, 3, T_Sinc, T_Sinc_DRLR, 666.4, hit, 1, 0
375, 3, T_Sinc, T_Sinc_UGRG, 425.9, hit, 2, 0
376, 3, T_Scon, T_Scon_URLR, 497.4, hit, 1, 0
377, 3, T_Scon, T_Scon_DGRG, 524.8, hit, 2, 0
378, 3, T_Scon, T_Scon_DGRG, 360.2, hit, 2, 0
379, 3, T_Scon, T_Scon_DGRG, 623.7, hit, 2, 0
380, 3, T_Scon, T_Scon_DGRG, 379.1, hit, 2, 0
381, 3, T_Scon, T_Scon_URLR, 822.5, hit, 1, 0
382, 3, T_Sinc, T_Sinc_UGRG, 1338.0, hit, 2, 2
383, 3, T_Scon, T_Scon_DGRG, 1033.4, hit, 2, 0
384, 3, T_Sinc, T_Sinc_UGRG, 436.8, hit, 2, 0
385, 3, T_Scon, T_Scon_DGRG, 424.3, hit, 2, 0
386, 3, T_Scon, T_Scon_URLR, 647.7, hit, 1, 0
387, 3, T_Scon, T_Scon_DGRG, 415.1, hit, 2, 0
388, 3, T_Scon, T_Scon_URLR, 974.6, hit, 1, 0
389, 3, T_Scon, T_Scon_URLR, 470.0, hit, 1, 0
390, 3, T_Scon, T_Scon_DGRG, 513.5, hit, 2, 0
391, 3, T_Scon, T_Scon_DGRG, 892.9, hit, 2, 0
392, 3, T_Scon, T_Scon_DGRG, 448.4, hit, 2, 0
393, 3, T_Scon, T_Scon_DGRG, 571.8, hit, 2, 0
394, 3, T_Sinc, T_Sinc_DRLR, 883.2, hit, 1, 0
395, 3, T_Scon, T_Scon_DGRG, 818.7, hit, 2, 0
396, 3, T_Scon, T_Scon_URLR, 734.2, hit, 1, 0
397, 3, T_Scon, T_Scon_URLR, 709.3, hit, 1, 0
398, 3, T_Scon, T_Scon_URLR, 352.7, hit, 1, 0
399, 3, T_Sinc, T_Sinc_DRLR, 460.2, hit, 1, 0
400, 3, T_Scon, T_Scon_URLR, 343.5, hit, 1, 0
401, 3, T_Scon, T_Scon_URLR, 315.0, hit, 1, 0
402, 3, T_Scon, T_Scon_DGRG, 418.5, hit, 2, 0
403, 3, T_Scon, T_Scon_DGRG, 357.9, hit, 2, 0
404, 3, T_Scon, T_Scon_DGRG, 413.3, hit, 2, 0
405, 3, T_Scon, T_Scon_URLR, 352.8, hit, 1, 0
406, 3, T_Sinc, T_Sinc_DRLR, 452.2, hit, 1, 0
407, 3, T_Scon, T_Scon_DGRG, 827.7, hit, 2, 0
408, 3, T_Scon, T_Scon_DGRG, 679.1, hit, 2, 0
409, 3, T_Scon, T_Scon_URLR, 418.6, hit, 1, 0
410, 3, T_Scon, T_Scon_URLR, 485.9, hit, 1, 0
411, 3, T_Scon, T_Scon_URLR, 361.4, hit, 1, 0
412, 3, T_Sinc, T_Sinc_UGRG, 552.9, hit, 2, 0
413, 3, T_Sinc, T_Sinc_DRLR, 1052.2, hit, 1, 0
414, 3, T_Scon, T_Scon_DGRG, 1135.7, hit, 2, 0
415, 3, T_Sinc, T_Sinc_UGRG, 387.2, hit, 2, 0
416, 3, T_Scon, T_Scon_URLR, 610.6, hit, 1, 0
417, 3, T_Scon, T_Scon_URLR, 598.0, hit, 1, 0
418, 3, T_Scon, T_Scon_URLR, 445.5, hit, 1, 0
419, 3, T_Sinc, T_Sinc_DRLR, 480.9, hit, 1, 0
420, 3, T_Scon, T_Scon_URLR, 436.4, hit, 1, 0
421, 3, T_Sinc, T_Sinc_DRLR, 575.8, hit, 1, 0
422, 3, T_Sinc, T_Sinc_UGRG, 531.2, hit, 2, 0
423, 3, T_Scon, T_Scon_URLR, 582.7, hit, 1, 0
424, 3, T_Scon, T_Scon_DGRG, 498.0, hit, 2, 0
425, 3, T_Sinc, T_Sinc_DRLR, 589.5, hit, 1, 0
426, 3, T_Scon, T_Scon_DGRG, 445.0, incorrect, 1, 1
427, 3, T_Scon, T_Scon_URLR, 376.4, hit, 1, 0
428, 3, T_Scon, T_Scon_URLR, 883.8, hit, 1, 0
429, 3, T_Scon, T_Scon_DGRG, 415.3, hit, 2, 0
430, 3, T_Sinc, T_Sinc_DRLR, 718.7, hit, 1, 0
431, 3, T_Sinc, T_Sinc_DRLR, 902.1, hit, 1, 0
432, 3, T_Scon, T_Scon_URLR, 561.6, hit, 1, 0
433, 4, T_Sinc, T_Sinc_UGRG, 831.6, hit, 2, 0
434, 4, T_Sinc, T_Sinc_DRLR, 715.0, hit, 1, 0
435, 4, T_Sinc, T_Sinc_UGRG, 458.4, hit, 2, 0
436, 4, T_Sinc, T_Sinc_UGRG, 309.8, hit, 2, 0
437, 4, T_Sinc, T_Sinc_UGRG, 313.3, hit, 2, 0
438, 4, T_Sinc, T_Sinc_DRLR, 560.7, hit, 1, 0
439, 4, T_Scon, T_Scon_URLR, 344.2, hit, 1, 0
440, 4, T_Sinc, T_Sinc_UGRG, 499.6, hit, 2, 0
441, 4, T_Sinc, T_Sinc_UGRG, 879.0, hit, 2, 0
442, 4, T_Sinc, T_Sinc_DRLR, 422.5, hit, 1, 0
443, 4, T_Sinc, T_Sinc_DRLR, 801.9, hit, 1, 0
444, 4, T_Scon, T_Scon_URLR, 581.4, hit, 1, 0
445, 4, T_Sinc, T_Sinc_DRLR, 432.8, hit, 1, 0
446, 4, T_Sinc, T_Sinc_UGRG, 484.2, hit, 2, 0
447, 4, T_Sinc, T_Sinc_UGRG, 703.7, hit, 2, 0
448, 4, T_Sinc, T_Sinc_UGRG, 515.1, hit, 2, 0
449, 4, T_Sinc, T_Sinc_UGRG, 366.5, hit, 2, 0
450, 4, T_Scon, T_Scon_URLR, 470.0, hit, 1, 0
451, 4, T_Sinc, T_Sinc_UGRG, 905.4, hit, 2, 0
452, 4, T_Sinc, T_Sinc_UGRG, 320.9, hit, 2, 0
453, 4, T_Scon, T_Scon_URLR, 460.3, hit, 1, 0
454, 4, T_Scon, T_Scon_DGRG, 551.7, hit, 2, 0
455, 4, T_Sinc, T_Sinc_UGRG, 631.2, hit, 2, 0
456, 4, T_Scon, T_Scon_DGRG, 438.6, hit, 2, 0
457, 4, T_Sinc, T_Sinc_UGRG, 534.1, hit, 2, 0
458, 4, T_Scon, T_Scon_URLR, 513.5, hit, 1, 0
459, 4, T_Scon, T_Scon_URLR, 437.0, hit, 1, 0
460, 4, T_Scon, T_Scon_DGRG, 504.3, hit, 2, 0
461, 4, T_Sinc, T_Sinc_UGRG, 1175.8, hit, 2, 2
462, 4, T_Sinc, T_Sinc_UGRG, 379.3, hit, 2, 0
463, 4, T_Sinc, T_Sinc_DRLR, 458.6, hit, 1, 0
464, 4, T_Sinc, T_Sinc_UGRG, 1046.1, hit, 2, 0
465, 4, T_Sinc, T_Sinc_DRLR, 821.6, hit, 1, 0
466, 4, T_Scon, T_Scon_URLR, 1104.9, hit, 1, 0
467, 4, T_Scon, T_Scon_URLR, 448.4, hit, 1, 0
468, 4, T_Sinc, T_Sinc_DRLR, 475.9, hit, 1, 0
469, 4, T_Sinc, T_Sinc_UGRG, 755.1, hit, 2, 0
470, 4, T_Scon, T_Scon_DGRG, 406.4, hit, 2, 0
471, 4, T_Sinc, T_Sinc_UGRG, 365.9, hit, 2, 0
472, 4, T_Scon, T_Scon_URLR, 449.4, hit, 1, 0
473, 4, T_Sinc, T_Sinc_DRLR, 436.7, hit, 1, 0
474, 4, T_Sinc, T_Sinc_UGRG, 384.2, hit, 2, 0
475, 4, T_Sinc, T_Sinc_UGRG, 455.7, hit, 2, 0
476, 4, T_Sinc, T_Sinc_DRLR, 423.1, hit, 1, 0
477, 4, T_Scon, T_Scon_URLR, 474.5, hit, 1, 0
478, 4, T_Sinc, T_Sinc_UGRG, 966.0, hit, 2, 0
479, 4, T_Sinc, T_Sinc_UGRG, 425.5, hit, 2, 0
480, 4, T_Sinc, T_Sinc_DRLR, 876.8, hit, 1, 0
481, 4, T_Scon, T_Scon_URLR, 416.3, hit, 1, 0
482, 4, T_Sinc, T_Sinc_DRLR, 395.7, hit, 1, 0
483, 4, T_Sinc, T_Sinc_DRLR, 367.1, hit, 1, 0
484, 4, T_Sinc, T_Sinc_DRLR, 482.6, hit, 1, 0
485, 4, T_Sinc, T_Sinc_UGRG, 482.0, hit, 2, 0
486, 4, T_Scon, T_Scon_DGRG, 729.4, hit, 2, 0
487, 4, T_Sinc, T_Sinc_DRLR, 432.9, hit, 1, 0
488, 4, T_Sinc, T_Sinc_DRLR, 652.3, hit, 1, 0
489, 4, T_Sinc, T_Sinc_DRLR, 439.8, hit, 1, 0
490, 4, T_Sinc, T_Sinc_UGRG, 483.2, hit, 2, 0
491, 4, T_Sinc, T_Sinc_UGRG, 414.7, hit, 2, 0
492, 4, T_Sinc, T_Sinc_DRLR, 410.1, hit, 1, 0
493, 4, T_Sinc, T_Sinc_DRLR, 341.5, hit, 1, 0
494, 4, T_Sinc, T_Sinc_DRLR, 545.0, hit, 1, 0
495, 4, T_Sinc, T_Sinc_DRLR, 500.4, hit, 1, 0
496, 4, T_Sinc, T_Sinc_UGRG, 591.8, hit, 2, 0
497, 4, T_Sinc, T_Sinc_DRLR, 755.3, hit, 1, 0
498, 4, T_Scon, T_Scon_URLR, 478.7, hit, 1, 0
499, 4, T_Sinc, T_Sinc_DRLR, 582.1, hit, 1, 0
500, 4, T_Sinc, T_Sinc_DRLR, 401.6, hit, 1, 0
501, 4, T_Sinc, T_Sinc_DRLR, 437.0, hit, 1, 0
502, 4, T_Sinc, T_Sinc_DRLR, 504.5, hit, 1, 0
503, 4, T_Scon, T_Scon_DGRG, 559.9, hit, 2, 0
504, 4, T_Sinc, T_Sinc_UGRG, 375.4, hit, 2, 0
505, 4, T_Sinc, T_Sinc_UGRG, 582.6, hit, 2, 0
506, 4, T_Scon, T_Scon_URLR, 517.9, hit, 1, 0
507, 4, T_Sinc, T_Sinc_UGRG, 481.4, hit, 2, 0
508, 4, T_Sinc, T_Sinc_DRLR, 1220.8, hit, 1, 2
509, 4, T_Sinc, T_Sinc_DRLR, 436.3, hit, 1, 0
510, 4, T_Sinc, T_Sinc_DRLR, 335.7, hit, 1, 0
511, 4, T_Sinc, T_Sinc_DRLR, 383.1, hit, 1, 0
512, 4, T_Sinc, T_Sinc_DRLR, 346.6, hit, 1, 0
513, 4, T_Sinc, T_Sinc_DRLR, 338.0, hit, 1, 0
514, 4, T_Sinc, T_Sinc_UGRG, 493.5, hit, 2, 0
515, 4, T_Sinc, T_Sinc_UGRG, 928.9, hit, 2, 0
516, 4, T_Sinc, T_Sinc_DRLR, 452.3, hit, 1, 0
517, 4, T_Scon, T_Scon_URLR, 951.8, hit, 1, 0
518, 4, T_Sinc, T_Sinc_DRLR, 539.3, hit, 1, 0
519, 4, T_Scon, T_Scon_DGRG, 470.6, hit, 2, 0
520, 4, T_Sinc, T_Sinc_UGRG, 546.1, hit, 2, 0
521, 4, T_Sinc, T_Sinc_UGRG, 477.6, hit, 2, 0
522, 4, T_Scon, T_Scon_DGRG, 457.0, hit, 2, 0
523, 4, T_Sinc, T_Sinc_UGRG, 388.4, hit, 2, 0
524, 4, T_Sinc, T_Sinc_DRLR, 427.9, hit, 1, 0
525, 4, T_Sinc, T_Sinc_UGRG, 407.3, hit, 2, 0
526, 4, T_Sinc, T_Sinc_UGRG, 330.7, hit, 2, 0
527, 4, T_Sinc, T_Sinc_DRLR, 550.2, hit, 1, 0
528, 4, T_Sinc, T_Sinc_DRLR, 629.6, hit, 1, 0
529, 4, T_Scon, T_Scon_URLR, 461.1, hit, 1, 0
530, 4, T_Sinc, T_Sinc_DRLR, 348.5, hit, 1, 0
531, 4, T_Sinc, T_Sinc_DRLR, 360.0, hit, 1, 0
532, 4, T_Sinc, T_Sinc_UGRG, 471.4, hit, 2, 0
533, 4, T_Scon, T_Scon_DGRG, 346.8, hit, 2, 0
534, 4, T_Sinc, T_Sinc_DRLR, 558.3, hit, 1, 0
535, 4, T_Sinc, T_Sinc_UGRG, 577.7, hit, 2, 0
536, 4, T_Sinc, T_Sinc_DRLR, 413.1, hit, 1, 0
537, 4, T_Sinc, T_Sinc_UGRG, 576.6, hit, 2, 0
538, 4, T_Sinc, T_Sinc_UGRG, 428.0, hit, 2, 0
539, 4, T_Sinc, T_Sinc_DRLR, 507.5, hit, 1, 0
540, 4, T_Sinc, T_Sinc_DRLR, 706.9, hit, 1, 0
541, 4, T_Sinc, T_Sinc_UGRG, 730.1, hit, 2, 0
542, 4, T_Scon, T_Scon_DGRG, 405.5, hit, 2, 0
543, 4, T_Sinc, T_Sinc_DRLR, 488.9, hit, 1, 0
544, 4, T_Scon, T_Scon_URLR, 376.4, hit, 1, 0
545, 4, T_Sinc, T_Sinc_DRLR, 291.8, hit, 1, 0
546, 4, T_Scon, T_Scon_DGRG, 555.2, hit, 2, 0
547, 4, T_Sinc, T_Sinc_UGRG, 366.7, hit, 2, 0
548, 4, T_Sinc, T_Sinc_DRLR, 342.1, hit, 1, 0
549, 4, T_Sinc, T_Sinc_UGRG, 529.6, hit, 2, 0
550, 4, T_Sinc, T_Sinc_UGRG, 425.0, hit, 2, 0
551, 4, T_Scon, T_Scon_DGRG, 508.5, hit, 2, 0
552, 4, T_Sinc, T_Sinc_DRLR, 423.9, hit, 1, 0
553, 4, T_Sinc, T_Sinc_DRLR, 439.3, hit, 1, 0
554, 4, T_Sinc, T_Sinc_UGRG, 486.7, hit, 2, 0
555, 4, T_Scon, T_Scon_DGRG, 418.2, hit, 2, 0
556, 4, T_Sinc, T_Sinc_DRLR, 501.6, hit, 1, 0
557, 4, T_Sinc, T_Sinc_DRLR, 493.1, hit, 1, 0
558, 4, T_Scon, T_Scon_DGRG, 444.5, hit, 2, 0
559, 4, T_Sinc, T_Sinc_DRLR, 731.9, hit, 1, 0
560, 4, T_Scon, T_Scon_URLR, 475.4, hit, 1, 0
561, 4, T_Sinc, T_Sinc_DRLR, 430.8, hit, 1, 0
562, 4, T_Sinc, T_Sinc_UGRG, 410.3, hit, 2, 0
563, 4, T_Sinc, T_Sinc_UGRG, 809.7, hit, 2, 0
564, 4, T_Sinc, T_Sinc_UGRG, 357.2, hit, 2, 0
565, 4, T_Scon, T_Scon_DGRG, 524.6, hit, 2, 0
566, 4, T_Sinc, T_Sinc_DRLR, 432.0, hit, 1, 0
567, 4, T_Sinc, T_Sinc_UGRG, 763.5, hit, 2, 0
568, 4, T_Sinc, T_Sinc_UGRG, 534.9, hit, 2, 0
569, 4, T_Scon, T_Scon_URLR, 530.3, hit, 1, 0
570, 4, T_Sinc, T_Sinc_UGRG, 725.8, hit, 2, 0
571, 4, T_Scon, T_Scon_DGRG, 833.2, hit, 2, 0
572, 4, T_Sinc, T_Sinc_DRLR, 1040.6, hit, 1, 0
573, 4, T_Sinc, T_Sinc_UGRG, 440.1, hit, 2, 0
574, 4, T_Scon, T_Scon_DGRG, 1155.5, hit, 2, 0
575, 4, T_Sinc, T_Sinc_UGRG, 379.0, hit, 2, 0
576, 4, T_Scon, T_Scon_DGRG, 462.4, hit, 2, 0
577, 5, T_Sinc, T_Sinc_UGRG, 579.2, hit, 2, 0
578, 5, T_Sinc, T_Sinc_DRLR, 426.5, hit, 1, 0
579, 5, T_Sinc, T_Sinc_DRLR, 818.0, hit, 1, 0
580, 5, T_Sinc, T_Sinc_UGRG, 509.4, hit, 2, 0
581, 5, T_Sinc, T_Sinc_UGRG, 336.8, hit, 2, 0
582, 5, T_Sinc, T_Sinc_UGRG, 312.3, hit, 2, 0
583, 5, T_Sinc, T_Sinc_UGRG, 403.7, hit, 2, 0
584, 5, T_Sinc, T_Sinc_UGRG, 291.1, hit, 2, 0
585, 5, T_Sinc, T_Sinc_DRLR, 390.6, hit, 1, 0
586, 5, T_Scon, T_Scon_URLR, 370.1, hit, 1, 0
587, 5, T_Sinc, T_Sinc_UGRG, 473.4, hit, 2, 0
588, 5, T_Scon, T_Scon_DGRG, 492.9, hit, 2, 0
589, 5, T_Sinc, T_Sinc_DRLR, 532.4, hit, 1, 0
590, 5, T_Sinc, T_Sinc_UGRG, 727.7, hit, 2, 0
591, 5, T_Scon, T_Scon_DGRG, 803.2, hit, 2, 0
592, 5, T_Sinc, T_Sinc_DRLR, 806.7, hit, 1, 0
593, 5, T_Sinc, T_Sinc_UGRG, 842.1, hit, 2, 0
594, 5, T_Sinc, T_Sinc_DRLR, 385.5, hit, 1, 0
595, 5, T_Sinc, T_Sinc_UGRG, 1341.0, hit, 2, 2
596, 5, T_Sinc, T_Sinc_DRLR, 448.4, hit, 1, 0
597, 5, T_Sinc, T_Sinc_UGRG, 403.9, hit, 2, 0
598, 5, T_Sinc, T_Sinc_UGRG, 371.3, hit, 2, 0
599, 5, T_Sinc, T_Sinc_DRLR, 446.8, hit, 1, 0
600, 5, T_Scon, T_Scon_URLR, 542.2, hit, 1, 0
601, 5, T_Sinc, T_Sinc_DRLR, 501.6, hit, 1, 0
602, 5, T_Scon, T_Scon_DGRG, 521.1, hit, 2, 0
603, 5, T_Sinc, T_Sinc_DRLR, 684.5, hit, 1, 0
604, 5, T_Sinc, T_Sinc_UGRG, 691.9, incorrect, 1, 1
605, 5, T_Sinc, T_Sinc_UGRG, 667.4, hit, 2, 0
606, 5, T_Scon, T_Scon_DGRG, 470.8, hit, 2, 0
607, 5, T_Scon, T_Scon_URLR, 462.2, hit, 1, 0
608, 5, T_Sinc, T_Sinc_UGRG, 761.7, hit, 2, 0
609, 5, T_Sinc, T_Sinc_DRLR, 373.2, hit, 1, 0
610, 5, T_Sinc, T_Sinc_UGRG, 868.5, hit, 2, 0
611, 5, T_Sinc, T_Sinc_UGRG, 408.0, hit, 2, 0
612, 5, T_Sinc, T_Sinc_DRLR, 403.5, hit, 1, 0
613, 5, T_Scon, T_Scon_URLR, 806.7, hit, 1, 0
614, 5, T_Sinc, T_Sinc_UGRG, 542.0, hit, 2, 0
615, 5, T_Scon, T_Scon_DGRG, 393.5, hit, 2, 0
616, 5, T_Sinc, T_Sinc_DRLR, 432.9, hit, 1, 0
617, 5, T_Sinc, T_Sinc_DRLR, 404.4, hit, 1, 0
618, 5, T_Sinc, T_Sinc_DRLR, 851.8, hit, 1, 0
619, 5, T_Scon, T_Scon_DGRG, 479.2, hit, 2, 0
620, 5, T_Sinc, T_Sinc_DRLR, 550.6, hit, 1, 0
621, 5, T_Sinc, T_Sinc_DRLR, 690.1, hit, 1, 0
622, 5, T_Sinc, T_Sinc_DRLR, 461.6, hit, 1, 0
623, 5, T_Sinc, T_Sinc_UGRG, 376.9, hit, 2, 0
624, 5, T_Sinc, T_Sinc_DRLR, 540.4, hit, 1, 0
625, 5, T_Sinc, T_Sinc_UGRG, 563.9, hit, 2, 0
626, 5, T_Sinc, T_Sinc_DRLR, 851.2, hit, 1, 0
627, 5, T_Sinc, T_Sinc_UGRG, 598.7, hit, 2, 0
628, 5, T_Scon, T_Scon_DGRG, 482.2, hit, 2, 0
629, 5, T_Scon, T_Scon_URLR, 497.7, hit, 1, 0
630, 5, T_Sinc, T_Sinc_DRLR, 365.0, hit, 1, 0
631, 5, T_Sinc, T_Sinc_UGRG, 404.5, hit, 2, 0
632, 5, T_Sinc, T_Sinc_DRLR, 524.0, hit, 1, 0
633, 5, T_Scon, T_Scon_URLR, 703.3, hit, 1, 0
634, 5, T_Sinc, T_Sinc_DRLR, 394.8, hit, 1, 0
635, 5, T_Sinc, T_Sinc_UGRG, 438.3, hit, 2, 0
636, 5, T_Scon, T_Scon_URLR, 405.7, hit, 1, 0
637, 5, T_Sinc, T_Sinc_UGRG, 849.1, hit, 2, 0
638, 5, T_Scon, T_Scon_URLR, 508.6, hit, 1, 0
639, 5, T_Scon, T_Scon_URLR, 440.0, hit, 1, 0
640, 5, T_Scon, T_Scon_DGRG, 427.4, hit, 2, 0
641, 5, T_Scon, T_Scon_URLR, 998.9, hit, 1, 0
642, 5, T_Sinc, T_Sinc_DRLR, 418.3, hit, 1, 0
643, 5, T_Sinc, T_Sinc_DRLR, 301.7, hit, 1, 0
644, 5, T_Sinc, T_Sinc_DRLR, 329.2, hit, 1, 0
645, 5, T_Sinc, T_Sinc_DRLR, 276.6, hit, 1, 0
646, 5, T_Sinc, T_Sinc_DRLR, 272.0, hit, 1, 0
647, 5, T_Sinc, T_Sinc_UGRG, 471.5, hit, 2, 0
648, 5, T_Scon, T_Scon_DGRG, 570.9, hit, 2, 0
649, 5, T_Sinc, T_Sinc_UGRG, 650.1, hit, 2, 0
650, 5, T_Sinc, T_Sinc_DRLR, 353.5, hit, 1, 0
651, 5, T_Sinc, T_Sinc_UGRG, 449.0, incorrect, 1, 1
652, 5, T_Sinc, T_Sinc_DRLR, 360.4, hit, 1, 0
653, 5, T_Scon, T_Scon_DGRG, 555.8, hit, 2, 0
654, 5, T_Scon, T_Scon_URLR, 387.3, hit, 1, 0
655, 5, T_Scon, T_Scon_URLR, 566.7, hit, 1, 0
656, 5, T_Scon, T_Scon_URLR, 374.1, hit, 1, 0
657, 5, T_Scon, T_Scon_DGRG, 537.6, hit, 2, 0
658, 5, T_Sinc, T_Sinc_UGRG, 777.0, hit, 2, 0
659, 5, T_Sinc, T_Sinc_UGRG, 348.5, hit, 2, 0
660, 5, T_Sinc, T_Sinc_UGRG, 359.9, hit, 2, 0
661, 5, T_Sinc, T_Sinc_UGRG, 303.3, hit, 2, 0
662, 5, T_Sinc, T_Sinc_UGRG, 330.8, hit, 2, 0
663, 5, T_Sinc, T_Sinc_UGRG, 358.2, hit, 2, 0
664, 5, T_Sinc, T_Sinc_UGRG, 329.6, hit, 2, 0
665, 5, T_Sinc, T_Sinc_UGRG, 509.1, hit, 2, 0
666, 5, T_Sinc, T_Sinc_DRLR, 488.5, hit, 1, 0
667, 5, T_Sinc, T_Sinc_UGRG, 371.9, hit, 2, 0
668, 5, T_Sinc, T_Sinc_DRLR, 471.4, hit, 1, 0
669, 5, T_Sinc, T_Sinc_DRLR, 306.9, hit, 1, 0
670, 5, T_Sinc, T_Sinc_UGRG, 542.2, hit, 2, 0
671, 5, T_Sinc, T_Sinc_DRLR, 421.7, hit, 1, 0
672, 5, T_Sinc, T_Sinc_DRLR, 1309.2, hit, 1, 2
673, 5, T_Sinc, T_Sinc_UGRG, 448.6, hit, 2, 0
674, 5, T_Sinc, T_Sinc_DRLR, 424.0, hit, 1, 0
675, 5, T_Scon, T_Scon_DGRG, 635.5, hit, 2, 0
676, 5, T_Sinc, T_Sinc_DRLR, 463.0, hit, 1, 0
677, 5, T_Scon, T_Scon_DGRG, 1054.3, hit, 2, 0
678, 5, T_Scon, T_Scon_DGRG, 457.8, hit, 2, 0
679, 5, T_Scon, T_Scon_DGRG, 445.3, hit, 2, 0
680, 5, T_Sinc, T_Sinc_UGRG, 396.6, hit, 2, 0
681, 5, T_Scon, T_Scon_URLR, 888.1, hit, 1, 0
682, 5, T_Sinc, T_Sinc_DRLR, 539.6, hit, 1, 0
683, 5, T_Sinc, T_Sinc_UGRG, 598.9, hit, 2, 0
684, 5, T_Sinc, T_Sinc_DRLR, 490.4, hit, 1, 0
685, 5, T_Sinc, T_Sinc_DRLR, 713.6, hit, 1, 0
686, 5, T_Sinc, T_Sinc_UGRG, 445.0, hit, 2, 0
687, 5, T_Sinc, T_Sinc_DRLR, 636.4, hit, 1, 0
688, 5, T_Scon, T_Scon_URLR, 431.9, hit, 1, 0
689, 5, T_Sinc, T_Sinc_UGRG, 443.4, hit, 2, 0
690, 5, T_Sinc, T_Sinc_DRLR, 526.7, hit, 1, 0
691, 5, T_Sinc, T_Sinc_UGRG, 538.2, hit, 2, 0
692, 5, T_Sinc, T_Sinc_UGRG, 357.7, hit, 2, 0
693, 5, T_Sinc, T_Sinc_UGRG, 365.1, hit, 2, 0
694, 5, T_Sinc, T_Sinc_UGRG, 408.5, hit, 2, 0
695, 5, T_Sinc, T_Sinc_DRLR, 452.0, hit, 1, 0
696, 5, T_Sinc, T_Sinc_DRLR, 719.4, incorrect, 2, 1
697, 5, T_Sinc, T_Sinc_DRLR, 410.8, incorrect, 2, 1
698, 5, T_Scon, T_Scon_URLR, 442.3, hit, 1, 0
699, 5, T_Scon, T_Scon_DGRG, 1161.7, hit, 2, 2
700, 5, T_Sinc, T_Sinc_UGRG, 393.1, hit, 2, 0
701, 5, T_Sinc, T_Sinc_DRLR, 472.7, hit, 1, 0
702, 5, T_Sinc, T_Sinc_UGRG, 1108.0, hit, 2, 0
703, 5, T_Scon, T_Scon_DGRG, 619.6, hit, 2, 0
704, 5, T_Sinc, T_Sinc_DRLR, 470.9, hit, 1, 0
705, 5, T_Sinc, T_Sinc_UGRG, 994.4, hit, 2, 0
706, 5, T_Sinc, T_Sinc_DRLR, 1253.8, hit, 1, 2
707, 5, T_Scon, T_Scon_DGRG, 601.2, hit, 2, 0
708, 5, T_Sinc, T_Sinc_DRLR, 868.7, hit, 1, 0
709, 5, T_Sinc, T_Sinc_UGRG, 1024.1, hit, 2, 0
710, 5, T_Sinc, T_Sinc_DRLR, 1075.6, hit, 1, 0
711, 5, T_Sinc, T_Sinc_UGRG, 419.0, hit, 2, 0
712, 5, T_Scon, T_Scon_URLR, 486.5, hit, 1, 0
713, 5, T_Sinc, T_Sinc_UGRG, 573.9, hit, 2, 0
714, 5, T_Sinc, T_Sinc_UGRG, 641.3, hit, 2, 0
715, 5, T_Sinc, T_Sinc_DRLR, 588.7, hit, 1, 0
716, 5, T_Sinc, T_Sinc_DRLR, 368.2, hit, 1, 0
717, 5, T_Sinc, T_Sinc_DRLR, 795.6, hit, 1, 0
718, 5, T_Sinc, T_Sinc_DRLR, 335.1, hit, 1, 0
719, 5, T_Sinc, T_Sinc_UGRG, 410.6, hit, 2, 0
720, 5, T_Scon, T_Scon_URLR, 585.9, hit, 1, 0
721, 6, T_Sinc, T_Sinc_DRLR, 729.8, hit, 1, 0
722, 6, T_Sinc, T_Sinc_UGRG, 461.2, hit, 2, 0
723, 6, T_Sinc, T_Sinc_UGRG, 476.6, hit, 2, 0
724, 6, T_Scon, T_Scon_URLR, 404.1, hit, 1, 0
725, 6, T_Scon, T_Scon_DGRG, 711.5, hit, 2, 0
726, 6, T_Sinc, T_Sinc_UGRG, 418.9, hit, 2, 0
727, 6, T_Sinc, T_Sinc_DRLR, 482.4, hit, 1, 0
728, 6, T_Scon, T_Scon_DGRG, 533.9, hit, 2, 0
729, 6, T_Sinc, T_Sinc_DRLR, 465.2, hit, 1, 0
730, 6, T_Sinc, T_Sinc_UGRG, 692.7, hit, 2, 0
731, 6, T_Sinc, T_Sinc_UGRG, 432.1, hit, 2, 0
732, 6, T_Sinc, T_Sinc_UGRG, 355.5, hit, 2, 0
733, 6, T_Sinc, T_Sinc_UGRG, 335.0, hit, 2, 0
734, 6, T_Sinc, T_Sinc_DRLR, 490.5, hit, 1, 0
735, 6, T_Sinc, T_Sinc_DRLR, 893.8, hit, 1, 0
736, 6, T_Sinc, T_Sinc_UGRG, 929.3, hit, 2, 0
737, 6, T_Scon, T_Scon_DGRG, 1056.8, hit, 2, 0
738, 6, T_Sinc, T_Sinc_UGRG, 388.1, hit, 2, 0
739, 6, T_Scon, T_Scon_URLR, 375.6, hit, 1, 0
740, 6, T_Sinc, T_Sinc_DRLR, 531.1, hit, 1, 0
741, 6, T_Sinc, T_Sinc_UGRG, 1086.4, hit, 2, 0
742, 6, T_Sinc, T_Sinc_DRLR, 406.0, hit, 1, 0
743, 6, T_Sinc, T_Sinc_UGRG, 577.4, hit, 2, 0
744, 6, T_Sinc, T_Sinc_UGRG, 1084.8, hit, 2, 0
745, 6, T_Sinc, T_Sinc_UGRG, 480.2, hit, 2, 0
746, 6, T_Sinc, T_Sinc_UGRG, 439.7, hit, 2, 0
747, 6, T_Sinc, T_Sinc_DRLR, 647.2, hit, 1, 0
748, 6, T_Sinc, T_Sinc_UGRG, 506.6, hit, 2, 0
749, 6, T_Sinc, T_Sinc_DRLR, 486.0, hit, 1, 0
750, 6, T_Scon, T_Scon_DGRG, 625.5, hit, 2, 0
751, 6, T_Sinc, T_Sinc_DRLR, 852.9, hit, 1, 0
752, 6, T_Scon, T_Scon_URLR, 464.3, hit, 1, 0
753, 6, T_Sinc, T_Sinc_DRLR, 339.7, hit, 1, 0
754, 6, T_Sinc, T_Sinc_DRLR, 387.2, hit, 1, 0
755, 6, T_Sinc, T_Sinc_UGRG, 382.6, hit, 2, 0
756, 6, T_Sinc, T_Sinc_UGRG, 578.1, hit, 2, 0
757, 6, T_Scon, T_Scon_DGRG, 557.3, hit, 2, 0
758, 6, T_Sinc, T_Sinc_UGRG, 416.6, hit, 2, 0
759, 6, T_Sinc, T_Sinc_DRLR, 408.1, hit, 1, 0
760, 6, T_Sinc, T_Sinc_DRLR, 387.6, hit, 1, 0
761, 6, T_Sinc, T_Sinc_UGRG, 383.0, hit, 2, 0
762, 6, T_Sinc, T_Sinc_UGRG, 926.4, hit, 2, 0
763, 6, T_Sinc, T_Sinc_DRLR, 401.9, hit, 1, 0
764, 6, T_Sinc, T_Sinc_UGRG, 561.3, hit, 2, 0
765, 6, T_Sinc, T_Sinc_DRLR, 724.7, hit, 1, 0
766, 6, T_Sinc, T_Sinc_DRLR, 408.2, hit, 1, 0
767, 6, T_Sinc, T_Sinc_DRLR, 283.7, hit, 1, 0
768, 6, T_Sinc, T_Sinc_DRLR, 271.0, hit, 1, 0
769, 6, T_Sinc, T_Sinc_DRLR, 266.5, hit, 1, 0
770, 6, T_Scon, T_Scon_DGRG, 430.0, hit, 2, 0
771, 6, T_Sinc, T_Sinc_DRLR, 617.3, hit, 1, 0
772, 6, T_Sinc, T_Sinc_UGRG, 628.8, hit, 2, 0
773, 6, T_Sinc, T_Sinc_DRLR, 1028.3, hit, 1, 0
774, 6, T_Sinc, T_Sinc_DRLR, 387.8, hit, 1, 0
775, 6, T_Sinc, T_Sinc_DRLR, 291.1, hit, 1, 0
776, 6, T_Sinc, T_Sinc_UGRG, 370.6, hit, 2, 0
777, 6, T_Sinc, T_Sinc_DRLR, 598.1, hit, 1, 0
778, 6, T_Scon, T_Scon_URLR, 417.4, hit, 1, 0
779, 6, T_Sinc, T_Sinc_UGRG, 420.9, hit, 2, 0
780, 6, T_Scon, T_Scon_DGRG, 768.4, hit, 2, 0
781, 6, T_Scon, T_Scon_URLR, 435.7, hit, 1, 0
782, 6, T_Sinc, T_Sinc_UGRG, 691.2, hit, 2, 0
783, 6, T_Sinc, T_Sinc_UGRG, 554.7, hit, 2, 0
784, 6, T_Sinc, T_Sinc_DRLR, 550.0, hit, 1, 0
785, 6, T_Sinc, T_Sinc_UGRG, 0.1, miss, 1558729, 1
786, 6, T_Sinc, T_Sinc_DRLR, 441.0, hit, 1, 0
787, 6, T_Sinc, T_Sinc_UGRG, 748.4, hit, 2, 0
788, 6, T_Sinc, T_Sinc_DRLR, 467.8, hit, 1, 0
789, 6, T_Scon, T_Scon_URLR, 399.3, hit, 1, 0
790, 6, T_Scon, T_Scon_URLR, 442.7, hit, 1, 0
791, 6, T_Sinc, T_Sinc_UGRG, 630.1, hit, 2, 0
792, 6, T_Sinc, T_Sinc_UGRG, 345.6, hit, 2, 0
793, 6, T_Sinc, T_Sinc_UGRG, 548.8, hit, 2, 0
794, 6, T_Sinc, T_Sinc_UGRG, 292.2, hit, 2, 0
795, 6, T_Scon, T_Scon_DGRG, 391.6, hit, 2, 0
796, 6, T_Sinc, T_Sinc_UGRG, 311.1, hit, 2, 0
797, 6, T_Scon, T_Scon_URLR, 438.5, hit, 1, 0
798, 6, T_Scon, T_Scon_URLR, 449.9, hit, 1, 0
799, 6, T_Sinc, T_Sinc_UGRG, 637.4, hit, 2, 0
800, 6, T_Sinc, T_Sinc_UGRG, 340.8, hit, 2, 0
801, 6, T_Sinc, T_Sinc_UGRG, 312.2, hit, 2, 0
802, 6, T_Scon, T_Scon_URLR, 471.7, hit, 1, 0
803, 6, T_Scon, T_Scon_DGRG, 515.2, hit, 2, 0
804, 6, T_Sinc, T_Sinc_DRLR, 542.5, hit, 1, 0
805, 6, T_Sinc, T_Sinc_UGRG, 602.0, hit, 2, 0
806, 6, T_Scon, T_Scon_URLR, 549.5, hit, 1, 0
807, 6, T_Sinc, T_Sinc_DRLR, 596.9, hit, 1, 0
808, 6, T_Sinc, T_Sinc_UGRG, 376.3, hit, 2, 0
809, 6, T_Sinc, T_Sinc_DRLR, 1015.8, hit, 1, 0
810, 6, T_Scon, T_Scon_URLR, 451.3, hit, 1, 0
811, 6, T_Scon, T_Scon_URLR, 670.6, hit, 1, 0
812, 6, T_Sinc, T_Sinc_DRLR, 462.1, hit, 1, 0
813, 6, T_Scon, T_Scon_DGRG, 521.6, hit, 2, 0
814, 6, T_Sinc, T_Sinc_DRLR, 1112.9, hit, 1, 0
815, 6, T_Sinc, T_Sinc_UGRG, 428.4, hit, 2, 0
816, 6, T_Sinc, T_Sinc_DRLR, 391.8, hit, 1, 0
817, 6, T_Sinc, T_Sinc_UGRG, 435.3, hit, 2, 0
818, 6, T_Scon, T_Scon_DGRG, 630.7, hit, 2, 0
819, 6, T_Sinc, T_Sinc_DRLR, 618.1, hit, 1, 0
820, 6, T_Sinc, T_Sinc_UGRG, 565.6, hit, 2, 0
821, 6, T_Sinc, T_Sinc_UGRG, 1509.0, hit, 2, 2
822, 6, T_Sinc, T_Sinc_DRLR, 472.4, hit, 1, 0
823, 6, T_Sinc, T_Sinc_UGRG, 715.9, hit, 2, 0
824, 6, T_Scon, T_Scon_DGRG, 523.4, hit, 2, 0
825, 6, T_Sinc, T_Sinc_UGRG, 446.8, hit, 2, 0
826, 6, T_Scon, T_Scon_URLR, 610.2, hit, 1, 0
827, 6, T_Sinc, T_Sinc_DRLR, 673.7, hit, 1, 0
828, 6, T_Sinc, T_Sinc_DRLR, 557.0, hit, 1, 0
829, 6, T_Sinc, T_Sinc_UGRG, 848.2, hit, 2, 0
830, 6, T_Sinc, T_Sinc_DRLR, 403.7, hit, 1, 0
831, 6, T_Scon, T_Scon_DGRG, 467.1, hit, 2, 0
832, 6, T_Sinc, T_Sinc_UGRG, 994.6, hit, 2, 0
833, 6, T_Sinc, T_Sinc_DRLR, 466.0, hit, 1, 0
834, 6, T_Scon, T_Scon_URLR, 857.5, hit, 1, 0
835, 6, T_Sinc, T_Sinc_UGRG, 604.9, hit, 2, 0
836, 6, T_Sinc, T_Sinc_UGRG, 720.3, hit, 2, 0
837, 6, T_Sinc, T_Sinc_DRLR, 579.8, hit, 1, 0
838, 6, T_Sinc, T_Sinc_DRLR, 363.2, hit, 1, 0
839, 6, T_Sinc, T_Sinc_DRLR, 390.6, hit, 1, 0
840, 6, T_Sinc, T_Sinc_DRLR, 278.1, hit, 1, 0
841, 6, T_Sinc, T_Sinc_DRLR, 329.5, hit, 1, 0
842, 6, T_Sinc, T_Sinc_DRLR, 292.9, hit, 1, 0
843, 6, T_Sinc, T_Sinc_UGRG, 400.4, hit, 2, 0
844, 6, T_Sinc, T_Sinc_DRLR, 287.9, hit, 1, 0
845, 6, T_Scon, T_Scon_URLR, 423.2, hit, 1, 0
846, 6, T_Scon, T_Scon_DGRG, 502.7, hit, 2, 0
847, 6, T_Sinc, T_Sinc_DRLR, 450.1, hit, 1, 0
848, 6, T_Sinc, T_Sinc_DRLR, 1197.5, hit, 1, 2
849, 6, T_Sinc, T_Sinc_DRLR, 413.0, hit, 1, 0
850, 6, T_Scon, T_Scon_DGRG, 428.5, hit, 2, 0
851, 6, T_Sinc, T_Sinc_UGRG, 399.8, hit, 2, 0
852, 6, T_Scon, T_Scon_URLR, 583.3, hit, 1, 0
853, 6, T_Sinc, T_Sinc_UGRG, 494.8, hit, 2, 0
854, 6, T_Scon, T_Scon_DGRG, 426.1, hit, 2, 0
855, 6, T_Sinc, T_Sinc_UGRG, 389.6, hit, 2, 0
856, 6, T_Sinc, T_Sinc_DRLR, 545.1, hit, 1, 0
857, 6, T_Scon, T_Scon_DGRG, 412.6, hit, 2, 0
858, 6, T_Sinc, T_Sinc_DRLR, 551.9, hit, 1, 0
859, 6, T_Scon, T_Scon_DGRG, 915.4, hit, 2, 0
860, 6, T_Sinc, T_Sinc_DRLR, 646.9, hit, 1, 0
861, 6, T_Sinc, T_Sinc_DRLR, 1322.2, hit, 1, 2
862, 6, T_Sinc, T_Sinc_UGRG, 857.7, hit, 2, 0
863, 6, T_Scon, T_Scon_URLR, 1173.2, hit, 1, 2
864, 6, T_Sinc, T_Sinc_UGRG, 856.5, hit, 2, 0
865, 7, T_Scon, T_Scon_URLR, 742.5, hit, 1, 0
866, 7, T_Sinc, T_Sinc_UGRG, 438.0, hit, 2, 0
867, 7, T_Scon, T_Scon_URLR, 441.3, hit, 1, 0
868, 7, T_Scon, T_Scon_DGRG, 1180.8, hit, 2, 2
869, 7, T_Scon, T_Scon_URLR, 408.3, hit, 1, 0
870, 7, T_Scon, T_Scon_URLR, 435.6, hit, 1, 0
871, 7, T_Scon, T_Scon_DGRG, 519.1, hit, 2, 0
872, 7, T_Scon, T_Scon_DGRG, 422.6, hit, 2, 0
873, 7, T_Scon, T_Scon_URLR, 386.1, hit, 1, 0
874, 7, T_Scon, T_Scon_URLR, 913.4, hit, 1, 0
875, 7, T_Scon, T_Scon_DGRG, 388.9, hit, 2, 0
876, 7, T_Sinc, T_Sinc_DRLR, 584.4, hit, 1, 0
877, 7, T_Scon, T_Scon_DGRG, 459.7, hit, 2, 0
878, 7, T_Scon, T_Scon_URLR, 511.2, hit, 1, 0
879, 7, T_Scon, T_Scon_URLR, 434.7, hit, 1, 0
880, 7, T_Scon, T_Scon_DGRG, 602.0, hit, 2, 0
881, 7, T_Sinc, T_Sinc_DRLR, 425.5, hit, 1, 0
882, 7, T_Sinc, T_Sinc_DRLR, 397.0, hit, 1, 0
883, 7, T_Scon, T_Scon_URLR, 372.4, hit, 1, 0
884, 7, T_Scon, T_Scon_URLR, 347.8, hit, 1, 0
885, 7, T_Scon, T_Scon_DGRG, 583.3, hit, 2, 0
886, 7, T_Scon, T_Scon_DGRG, 334.8, hit, 2, 0
887, 7, T_Scon, T_Scon_DGRG, 306.1, hit, 2, 0
888, 7, T_Sinc, T_Sinc_UGRG, 429.6, hit, 2, 0
889, 7, T_Sinc, T_Sinc_UGRG, 373.1, hit, 2, 0
890, 7, T_Scon, T_Scon_URLR, 472.5, hit, 1, 0
891, 7, T_Sinc, T_Sinc_DRLR, 487.9, hit, 1, 0
892, 7, T_Scon, T_Scon_DGRG, 439.4, hit, 2, 0
893, 7, T_Scon, T_Scon_DGRG, 450.7, hit, 2, 0
894, 7, T_Scon, T_Scon_URLR, 446.2, hit, 1, 0
895, 7, T_Sinc, T_Sinc_DRLR, 981.7, hit, 1, 0
896, 7, T_Sinc, T_Sinc_UGRG, 461.1, hit, 2, 0
897, 7, T_Sinc, T_Sinc_DRLR, 396.5, hit, 1, 0
898, 7, T_Scon, T_Scon_URLR, 1128.0, hit, 1, 0
899, 7, T_Scon, T_Scon_URLR, 395.4, hit, 1, 0
900, 7, T_Scon, T_Scon_URLR, 330.8, hit, 1, 0
901, 7, T_Scon, T_Scon_URLR, 594.1, hit, 1, 0
902, 7, T_Sinc, T_Sinc_UGRG, 437.5, hit, 2, 0
903, 7, T_Sinc, T_Sinc_DRLR, 472.8, hit, 1, 0
904, 7, T_Scon, T_Scon_DGRG, 872.3, hit, 2, 0
905, 7, T_Scon, T_Scon_DGRG, 363.7, hit, 2, 0
906, 7, T_Scon, T_Scon_DGRG, 359.2, hit, 2, 0
907, 7, T_Scon, T_Scon_URLR, 398.7, hit, 1, 0
908, 7, T_Sinc, T_Sinc_UGRG, 486.1, hit, 2, 0
909, 7, T_Sinc, T_Sinc_DRLR, 409.5, hit, 1, 0
910, 7, T_Scon, T_Scon_DGRG, 733.0, hit, 2, 0
911, 7, T_Scon, T_Scon_DGRG, 1120.4, hit, 2, 0
912, 7, T_Sinc, T_Sinc_UGRG, 363.8, hit, 2, 0
913, 7, T_Scon, T_Scon_DGRG, 347.2, hit, 2, 0
914, 7, T_Scon, T_Scon_URLR, 390.7, hit, 1, 0
915, 7, T_Scon, T_Scon_DGRG, 398.1, hit, 2, 0
916, 7, T_Scon, T_Scon_URLR, 861.6, hit, 1, 0
917, 7, T_Scon, T_Scon_DGRG, 473.0, hit, 2, 0
918, 7, T_Sinc, T_Sinc_DRLR, 644.4, incorrect, 2, 1
919, 7, T_Scon, T_Scon_DGRG, 383.9, hit, 2, 0
920, 7, T_Scon, T_Scon_DGRG, 1027.3, hit, 2, 0
921, 7, T_Sinc, T_Sinc_UGRG, 458.7, hit, 2, 0
922, 7, T_Scon, T_Scon_URLR, 426.2, hit, 1, 0
923, 7, T_Scon, T_Scon_DGRG, 405.7, hit, 2, 0
924, 7, T_Scon, T_Scon_DGRG, 361.0, hit, 2, 0
925, 7, T_Scon, T_Scon_DGRG, 344.5, hit, 2, 0
926, 7, T_Scon, T_Scon_URLR, 420.0, hit, 1, 0
927, 7, T_Sinc, T_Sinc_DRLR, 615.4, hit, 1, 0
928, 7, T_Scon, T_Scon_DGRG, 682.8, hit, 2, 0
929, 7, T_Scon, T_Scon_DGRG, 894.2, hit, 2, 0
930, 7, T_Scon, T_Scon_URLR, 465.7, hit, 1, 0
931, 7, T_Scon, T_Scon_URLR, 469.1, hit, 1, 0
932, 7, T_Scon, T_Scon_DGRG, 452.6, hit, 2, 0
933, 7, T_Scon, T_Scon_URLR, 448.0, hit, 1, 0
934, 7, T_Scon, T_Scon_DGRG, 1163.4, hit, 2, 2
935, 7, T_Scon, T_Scon_URLR, 366.9, hit, 1, 0
936, 7, T_Scon, T_Scon_URLR, 674.4, hit, 1, 0
937, 7, T_Sinc, T_Sinc_DRLR, 597.6, hit, 1, 0
938, 7, T_Scon, T_Scon_DGRG, 484.9, hit, 2, 0
939, 7, T_Scon, T_Scon_DGRG, 432.4, hit, 2, 0
940, 7, T_Scon, T_Scon_DGRG, 347.8, hit, 2, 0
941, 7, T_Scon, T_Scon_URLR, 379.2, hit, 1, 0
942, 7, T_Scon, T_Scon_URLR, 298.7, hit, 1, 0
943, 7, T_Scon, T_Scon_URLR, 326.2, hit, 1, 0
944, 7, T_Sinc, T_Sinc_UGRG, 489.5, hit, 2, 0
945, 7, T_Scon, T_Scon_URLR, 381.0, hit, 1, 0
946, 7, T_Sinc, T_Sinc_DRLR, 864.5, hit, 1, 0
947, 7, T_Scon, T_Scon_DGRG, 535.8, hit, 2, 0
948, 7, T_Scon, T_Scon_DGRG, 523.3, hit, 2, 0
949, 7, T_Sinc, T_Sinc_UGRG, 342.8, hit, 2, 0
950, 7, T_Scon, T_Scon_URLR, 462.1, hit, 1, 0
951, 7, T_Scon, T_Scon_DGRG, 533.6, hit, 2, 0
952, 7, T_Scon, T_Scon_DGRG, 1069.1, hit, 2, 0
953, 7, T_Sinc, T_Sinc_DRLR, 516.4, hit, 1, 0
954, 7, T_Sinc, T_Sinc_UGRG, 771.9, hit, 2, 0
955, 7, T_Sinc, T_Sinc_DRLR, 783.4, hit, 1, 0
956, 7, T_Scon, T_Scon_URLR, 402.8, hit, 1, 0
957, 7, T_Scon, T_Scon_DGRG, 566.2, hit, 2, 0
958, 7, T_Scon, T_Scon_DGRG, 417.7, hit, 2, 0
959, 7, T_Scon, T_Scon_DGRG, 305.1, hit, 2, 0
960, 7, T_Sinc, T_Sinc_UGRG, 388.5, hit, 2, 0
961, 7, T_Scon, T_Scon_URLR, 596.0, hit, 1, 0
962, 7, T_Scon, T_Scon_URLR, 1231.4, hit, 1, 2
963, 7, T_Sinc, T_Sinc_DRLR, 430.9, hit, 1, 0
964, 7, T_Sinc, T_Sinc_UGRG, 442.3, hit, 2, 0
965, 7, T_Sinc, T_Sinc_DRLR, 565.7, hit, 1, 0
966, 7, T_Scon, T_Scon_URLR, 1049.2, hit, 1, 0
967, 7, T_Scon, T_Scon_URLR, 428.6, hit, 1, 0
968, 7, T_Scon, T_Scon_DGRG, 372.0, hit, 2, 0
969, 7, T_Scon, T_Scon_DGRG, 963.5, hit, 2, 0
970, 7, T_Scon, T_Scon_DGRG, 278.9, hit, 2, 0
971, 7, T_Sinc, T_Sinc_UGRG, 414.3, hit, 2, 0
972, 7, T_Sinc, T_Sinc_UGRG, 321.8, hit, 2, 0
973, 7, T_Scon, T_Scon_DGRG, 641.0, hit, 2, 0
974, 7, T_Scon, T_Scon_URLR, 420.4, hit, 1, 0
975, 7, T_Scon, T_Scon_URLR, 455.9, hit, 1, 0
976, 7, T_Scon, T_Scon_URLR, 323.3, hit, 1, 0
977, 7, T_Scon, T_Scon_DGRG, 486.7, hit, 2, 0
978, 7, T_Sinc, T_Sinc_UGRG, 418.2, hit, 2, 0
979, 7, T_Scon, T_Scon_URLR, 493.6, hit, 1, 0
980, 7, T_Sinc, T_Sinc_UGRG, 365.0, hit, 2, 0
981, 7, T_Scon, T_Scon_URLR, 1032.5, hit, 1, 0
982, 7, T_Scon, T_Scon_DGRG, 455.9, hit, 2, 0
983, 7, T_Scon, T_Scon_DGRG, 827.3, hit, 2, 0
984, 7, T_Scon, T_Scon_DGRG, 390.8, hit, 2, 0
985, 7, T_Sinc, T_Sinc_DRLR, 506.2, hit, 1, 0
986, 7, T_Scon, T_Scon_DGRG, 1221.6, hit, 2, 2
987, 7, T_Scon, T_Scon_DGRG, 313.1, hit, 2, 0
988, 7, T_Scon, T_Scon_URLR, 476.5, hit, 1, 0
989, 7, T_Scon, T_Scon_DGRG, 800.0, hit, 2, 0
990, 7, T_Scon, T_Scon_URLR, 515.4, hit, 1, 0
991, 7, T_Scon, T_Scon_DGRG, 566.8, hit, 2, 0
992, 7, T_Scon, T_Scon_URLR, 418.3, hit, 1, 0
993, 7, T_Scon, T_Scon_URLR, 581.8, hit, 1, 0
994, 7, T_Scon, T_Scon_URLR, 389.2, hit, 1, 0
995, 7, T_Sinc, T_Sinc_DRLR, 408.6, hit, 1, 0
996, 7, T_Scon, T_Scon_URLR, 420.1, hit, 1, 0
997, 7, T_Sinc, T_Sinc_UGRG, 479.5, hit, 2, 0
998, 7, T_Scon, T_Scon_URLR, 646.9, hit, 1, 0
999, 7, T_Scon, T_Scon_DGRG, 514.4, hit, 2, 0
1000, 7, T_Scon, T_Scon_DGRG, 529.8, hit, 2, 0
1001, 7, T_Scon, T_Scon_URLR, 369.3, hit, 1, 0
1002, 7, T_Scon, T_Scon_DGRG, 488.7, hit, 2, 0
1003, 7, T_Scon, T_Scon_URLR, 372.1, hit, 1, 0
1004, 7, T_Scon, T_Scon_URLR, 831.6, hit, 1, 0
1005, 7, T_Scon, T_Scon_URLR, 379.0, hit, 1, 0
1006, 7, T_Scon, T_Scon_URLR, 454.4, hit, 1, 0
1007, 7, T_Scon, T_Scon_URLR, 353.9, hit, 1, 0
1008, 7, T_Scon, T_Scon_DGRG, 437.3, hit, 2, 0
1009, 8, T_Scon, T_Scon_DGRG, 526.7, hit, 2, 0
1010, 8, T_Scon, T_Scon_DGRG, 322.2, hit, 2, 0
1011, 8, T_Sinc, T_Sinc_UGRG, 365.5, hit, 2, 0
1012, 8, T_Sinc, T_Sinc_UGRG, 313.0, hit, 2, 0
1013, 8, T_Sinc, T_Sinc_UGRG, 300.5, hit, 2, 0
1014, 8, T_Scon, T_Scon_DGRG, 331.8, hit, 2, 0
1015, 8, T_Scon, T_Scon_URLR, 431.3, hit, 1, 0
1016, 8, T_Scon, T_Scon_URLR, 362.8, hit, 1, 0
1017, 8, T_Scon, T_Scon_DGRG, 510.2, hit, 2, 0
1018, 8, T_Scon, T_Scon_URLR, 1277.6, hit, 1, 2
1019, 8, T_Sinc, T_Sinc_DRLR, 433.1, hit, 1, 0
1020, 8, T_Scon, T_Scon_URLR, 296.4, hit, 1, 0
1021, 8, T_Sinc, T_Sinc_UGRG, 491.9, hit, 2, 0
1022, 8, T_Sinc, T_Sinc_UGRG, 359.4, hit, 2, 0
1023, 8, T_Scon, T_Scon_URLR, 410.9, hit, 1, 0
1024, 8, T_Scon, T_Scon_DGRG, 1014.2, hit, 2, 0
1025, 8, T_Scon, T_Scon_DGRG, 321.7, hit, 2, 0
1026, 8, T_Scon, T_Scon_DGRG, 285.2, hit, 2, 0
1027, 8, T_Scon, T_Scon_DGRG, 392.5, hit, 2, 0
1028, 8, T_Sinc, T_Sinc_UGRG, 452.0, hit, 2, 0
1029, 8, T_Sinc, T_Sinc_DRLR, 551.5, hit, 1, 0
1030, 8, T_Scon, T_Scon_DGRG, 622.9, hit, 2, 0
1031, 8, T_Scon, T_Scon_DGRG, 1070.3, hit, 2, 0
1032, 8, T_Scon, T_Scon_URLR, 505.8, hit, 1, 0
1033, 8, T_Sinc, T_Sinc_UGRG, 485.3, hit, 2, 0
1034, 8, T_Scon, T_Scon_URLR, 444.6, hit, 1, 0
1035, 8, T_Scon, T_Scon_URLR, 1192.1, hit, 1, 2
1036, 8, T_Scon, T_Scon_DGRG, 543.6, hit, 2, 0
1037, 8, T_Scon, T_Scon_URLR, 882.9, hit, 1, 0
1038, 8, T_Scon, T_Scon_URLR, 262.4, hit, 1, 0
1039, 8, T_Sinc, T_Sinc_DRLR, 537.9, hit, 1, 0
1040, 8, T_Scon, T_Scon_DGRG, 509.3, hit, 2, 0
1041, 8, T_Scon, T_Scon_URLR, 944.7, hit, 1, 0
1042, 8, T_Sinc, T_Sinc_DRLR, 704.2, hit, 1, 0
1043, 8, T_Scon, T_Scon_URLR, 571.6, hit, 1, 0
1044, 8, T_Sinc, T_Sinc_UGRG, 535.0, hit, 2, 0
1045, 8, T_Scon, T_Scon_DGRG, 558.2, hit, 2, 0
1046, 8, T_Sinc, T_Sinc_DRLR, 461.7, hit, 1, 0
1047, 8, T_Scon, T_Scon_DGRG, 513.1, hit, 2, 0
1048, 8, T_Scon, T_Scon_DGRG, 468.5, hit, 2, 0
1049, 8, T_Scon, T_Scon_URLR, 376.0, hit, 1, 0
1050, 8, T_Sinc, T_Sinc_DRLR, 635.4, hit, 1, 0
1051, 8, T_Sinc, T_Sinc_UGRG, 418.8, hit, 2, 0
1052, 8, T_Scon, T_Scon_URLR, 918.3, hit, 1, 0
1053, 8, T_Scon, T_Scon_URLR, 469.8, hit, 1, 0
1054, 8, T_Scon, T_Scon_URLR, 385.1, hit, 1, 0
1055, 8, T_Scon, T_Scon_URLR, 284.6, hit, 1, 0
1056, 8, T_Scon, T_Scon_URLR, 264.1, hit, 1, 0
1057, 8, T_Scon, T_Scon_DGRG, 423.4, hit, 2, 0
1058, 8, T_Scon, T_Scon_URLR, 394.9, hit, 1, 0
1059, 8, T_Scon, T_Scon_URLR, 1150.4, hit, 1, 0
1060, 8, T_Scon, T_Scon_URLR, 609.7, hit, 1, 0
1061, 8, T_Scon, T_Scon_DGRG, 433.2, hit, 2, 0
1062, 8, T_Sinc, T_Sinc_DRLR, 1352.7, hit, 1, 2
1063, 8, T_Scon, T_Scon_URLR, 420.0, hit, 1, 0
1064, 8, T_Scon, T_Scon_URLR, 327.5, hit, 1, 0
1065, 8, T_Sinc, T_Sinc_DRLR, 443.0, hit, 1, 0
1066, 8, T_Scon, T_Scon_URLR, 358.4, hit, 1, 0
1067, 8, T_Scon, T_Scon_URLR, 345.8, hit, 1, 0
1068, 8, T_Scon, T_Scon_URLR, 353.3, hit, 1, 0
1069, 8, T_Sinc, T_Sinc_DRLR, 440.7, hit, 1, 0
1070, 8, T_Sinc, T_Sinc_UGRG, 428.1, hit, 2, 0
1071, 8, T_Scon, T_Scon_URLR, 607.6, hit, 1, 0
1072, 8, T_Scon, T_Scon_DGRG, 1335.0, hit, 2, 2
1073, 8, T_Scon, T_Scon_URLR, 1086.4, hit, 1, 0
1074, 8, T_Scon, T_Scon_DGRG, 0.1, miss, 1582394, 1
1075, 8, T_Scon, T_Scon_DGRG, 1049.3, hit, 2, 0
1076, 8, T_Scon, T_Scon_DGRG, 336.8, hit, 2, 0
1077, 8, T_Scon, T_Scon_DGRG, 304.2, hit, 2, 0
1078, 8, T_Scon, T_Scon_DGRG, 311.6, hit, 2, 0
1079, 8, T_Sinc, T_Sinc_UGRG, 359.1, hit, 2, 0
1080, 8, T_Scon, T_Scon_URLR, 450.5, hit, 1, 0
1081, 8, T_Scon, T_Scon_URLR, 697.8, hit, 1, 0
1082, 8, T_Sinc, T_Sinc_DRLR, 373.1, hit, 1, 0
1083, 8, T_Sinc, T_Sinc_UGRG, 408.6, hit, 2, 0
1084, 8, T_Sinc, T_Sinc_UGRG, 384.0, hit, 2, 0
1085, 8, T_Scon, T_Scon_URLR, 391.4, hit, 1, 0
1086, 8, T_Scon, T_Scon_DGRG, 746.9, hit, 2, 0
1087, 8, T_Scon, T_Scon_DGRG, 366.3, hit, 2, 0
1088, 8, T_Scon, T_Scon_URLR, 353.7, hit, 1, 0
1089, 8, T_Scon, T_Scon_URLR, 341.2, hit, 1, 0
1090, 8, T_Scon, T_Scon_DGRG, 572.6, hit, 2, 0
1091, 8, T_Scon, T_Scon_DGRG, 1436.0, hit, 2, 2
1092, 8, T_Scon, T_Scon_URLR, 403.5, hit, 1, 0
1093, 8, T_Scon, T_Scon_URLR, 463.0, hit, 1, 0
1094, 8, T_Scon, T_Scon_DGRG, 426.4, hit, 2, 0
1095, 8, T_Scon, T_Scon_DGRG, 333.8, hit, 2, 0
1096, 8, T_Scon, T_Scon_URLR, 513.3, hit, 1, 0
1097, 8, T_Scon, T_Scon_DGRG, 776.6, hit, 2, 0
1098, 8, T_Scon, T_Scon_URLR, 516.1, hit, 1, 0
1099, 8, T_Sinc, T_Sinc_DRLR, 535.6, hit, 1, 0
1100, 8, T_Scon, T_Scon_URLR, 515.0, hit, 1, 0
1101, 8, T_Scon, T_Scon_DGRG, 734.4, hit, 2, 0
1102, 8, T_Scon, T_Scon_URLR, 749.9, hit, 1, 0
1103, 8, T_Scon, T_Scon_DGRG, 565.3, hit, 2, 0
1104, 8, T_Scon, T_Scon_URLR, 552.7, incorrect, 2, 1
1105, 8, T_Scon, T_Scon_DGRG, 308.2, hit, 2, 0
1106, 8, T_Scon, T_Scon_DGRG, 447.7, hit, 2, 0
1107, 8, T_Sinc, T_Sinc_UGRG, 355.0, incorrect, 1, 1
1108, 8, T_Sinc, T_Sinc_DRLR, 610.5, hit, 1, 0
1109, 8, T_Scon, T_Scon_DGRG, 1258.0, hit, 2, 2
1110, 8, T_Scon, T_Scon_DGRG, 377.3, hit, 2, 0
1111, 8, T_Scon, T_Scon_DGRG, 348.8, hit, 2, 0
1112, 8, T_Sinc, T_Sinc_DRLR, 436.3, hit, 1, 0
1113, 8, T_Scon, T_Scon_DGRG, 567.7, hit, 2, 0
1114, 8, T_Scon, T_Scon_URLR, 719.1, hit, 1, 0
1115, 8, T_Scon, T_Scon_DGRG, 590.6, hit, 2, 0
1116, 8, T_Sinc, T_Sinc_UGRG, 378.1, hit, 2, 0
1117, 8, T_Sinc, T_Sinc_DRLR, 645.3, hit, 1, 0
1118, 8, T_Scon, T_Scon_DGRG, 424.6, hit, 2, 0
1119, 8, T_Scon, T_Scon_DGRG, 452.1, hit, 2, 0
1120, 8, T_Sinc, T_Sinc_DRLR, 411.5, hit, 1, 0
1121, 8, T_Sinc, T_Sinc_UGRG, 402.9, hit, 2, 0
1122, 8, T_Scon, T_Scon_DGRG, 302.4, hit, 2, 0
1123, 8, T_Scon, T_Scon_DGRG, 305.8, hit, 2, 0
1124, 8, T_Scon, T_Scon_DGRG, 285.2, hit, 2, 0
1125, 8, T_Sinc, T_Sinc_UGRG, 320.7, hit, 2, 0
1126, 8, T_Scon, T_Scon_DGRG, 372.1, hit, 2, 0
1127, 8, T_Scon, T_Scon_DGRG, 299.6, hit, 2, 0
1128, 8, T_Sinc, T_Sinc_UGRG, 375.0, hit, 2, 0
1129, 8, T_Scon, T_Scon_DGRG, 410.5, hit, 2, 0
1130, 8, T_Scon, T_Scon_DGRG, 289.9, hit, 2, 0
1131, 8, T_Sinc, T_Sinc_DRLR, 465.3, hit, 1, 0
1132, 8, T_Scon, T_Scon_DGRG, 568.8, hit, 2, 0
1133, 8, T_Scon, T_Scon_URLR, 612.2, hit, 1, 0
1134, 8, T_Scon, T_Scon_URLR, 367.6, hit, 1, 0
1135, 8, T_Scon, T_Scon_URLR, 387.1, hit, 1, 0
1136, 8, T_Scon, T_Scon_DGRG, 430.6, hit, 2, 0
1137, 8, T_Scon, T_Scon_DGRG, 425.9, hit, 2, 0
1138, 8, T_Scon, T_Scon_URLR, 437.4, hit, 1, 0
1139, 8, T_Sinc, T_Sinc_DRLR, 468.9, hit, 1, 0
1140, 8, T_Scon, T_Scon_URLR, 328.2, hit, 1, 0
1141, 8, T_Scon, T_Scon_URLR, 299.7, hit, 1, 0
1142, 8, T_Sinc, T_Sinc_DRLR, 431.2, hit, 1, 0
1143, 8, T_Scon, T_Scon_URLR, 334.5, hit, 1, 0
1144, 8, T_Scon, T_Scon_URLR, 306.0, hit, 1, 0
1145, 8, T_Scon, T_Scon_DGRG, 461.5, hit, 2, 0
1146, 8, T_Scon, T_Scon_URLR, 912.8, hit, 1, 0
1147, 8, T_Scon, T_Scon_URLR, 472.3, hit, 1, 0
1148, 8, T_Scon, T_Scon_URLR, 307.8, hit, 1, 0
1149, 8, T_Scon, T_Scon_URLR, 295.2, hit, 1, 0
1150, 8, T_Scon, T_Scon_DGRG, 390.6, hit, 2, 0
1151, 8, T_Scon, T_Scon_DGRG, 338.1, hit, 2, 0
1152, 8, T_Scon, T_Scon_URLR, 373.5, hit, 1, 0
1153, 9, T_Scon, T_Scon_URLR, 842.7, hit, 1, 0
1154, 9, T_Sinc, T_Sinc_UGRG, 470.1, hit, 2, 0
1155, 9, T_Scon, T_Scon_DGRG, 433.5, hit, 2, 0
1156, 9, T_Sinc, T_Sinc_UGRG, 381.0, hit, 2, 0
1157, 9, T_Scon, T_Scon_DGRG, 336.4, hit, 2, 0
1158, 9, T_Scon, T_Scon_DGRG, 307.8, hit, 2, 0
1159, 9, T_Scon, T_Scon_URLR, 415.3, hit, 1, 0
1160, 9, T_Sinc, T_Sinc_DRLR, 526.8, hit, 1, 0
1161, 9, T_Scon, T_Scon_URLR, 410.1, hit, 1, 0
1162, 9, T_Sinc, T_Sinc_UGRG, 437.6, hit, 2, 0
1163, 9, T_Scon, T_Scon_DGRG, 465.1, hit, 2, 0
1164, 9, T_Scon, T_Scon_DGRG, 396.5, hit, 2, 0
1165, 9, T_Scon, T_Scon_DGRG, 303.9, hit, 2, 0
1166, 9, T_Sinc, T_Sinc_DRLR, 419.4, hit, 1, 0
1167, 9, T_Scon, T_Scon_URLR, 722.8, hit, 1, 0
1168, 9, T_Scon, T_Scon_URLR, 294.2, hit, 1, 0
1169, 9, T_Scon, T_Scon_URLR, 345.7, hit, 1, 0
1170, 9, T_Scon, T_Scon_DGRG, 541.1, hit, 2, 0
1171, 9, T_Scon, T_Scon_DGRG, 1176.5, incorrect, 1, 1
1172, 9, T_Scon, T_Scon_URLR, 412.0, hit, 1, 0
1173, 9, T_Scon, T_Scon_DGRG, 1083.5, hit, 2, 0
1174, 9, T_Scon, T_Scon_DGRG, 450.9, hit, 2, 0
1175, 9, T_Scon, T_Scon_URLR, 646.3, hit, 1, 0
1176, 9, T_Scon, T_Scon_DGRG, 465.8, hit, 2, 0
1177, 9, T_Scon, T_Scon_DGRG, 677.2, hit, 2, 0
1178, 9, T_Scon, T_Scon_DGRG, 368.6, hit, 2, 0
1179, 9, T_Scon, T_Scon_URLR, 384.1, hit, 1, 0
1180, 9, T_Sinc, T_Sinc_DRLR, 931.5, incorrect, 2, 1
1181, 9, T_Sinc, T_Sinc_DRLR, 426.9, hit, 1, 0
1182, 9, T_Scon, T_Scon_URLR, 390.4, hit, 1, 0
1183, 9, T_Sinc, T_Sinc_UGRG, 525.8, hit, 2, 0
1184, 9, T_Scon, T_Scon_DGRG, 573.2, hit, 2, 0
1185, 9, T_Scon, T_Scon_URLR, 428.7, hit, 1, 0
1186, 9, T_Scon, T_Scon_URLR, 752.2, hit, 1, 0
1187, 9, T_Scon, T_Scon_DGRG, 511.5, hit, 2, 0
1188, 9, T_Scon, T_Scon_DGRG, 907.0, hit, 2, 0
1189, 9, T_Scon, T_Scon_URLR, 842.2, hit, 1, 0
1190, 9, T_Scon, T_Scon_DGRG, 493.6, hit, 2, 0
1191, 9, T_Scon, T_Scon_URLR, 529.0, hit, 1, 0
1192, 9, T_Sinc, T_Sinc_UGRG, 756.5, hit, 2, 0
1193, 9, T_Scon, T_Scon_URLR, 871.9, hit, 1, 0
1194, 9, T_Sinc, T_Sinc_UGRG, 539.3, hit, 2, 0
1195, 9, T_Scon, T_Scon_URLR, 478.8, hit, 1, 0
1196, 9, T_Scon, T_Scon_URLR, 418.2, hit, 1, 0
1197, 9, T_Scon, T_Scon_URLR, 309.6, hit, 1, 0
1198, 9, T_Scon, T_Scon_DGRG, 417.1, hit, 2, 0
1199, 9, T_Scon, T_Scon_URLR, 336.6, hit, 1, 0
1200, 9, T_Scon, T_Scon_URLR, 363.9, hit, 1, 0
1201, 9, T_Scon, T_Scon_DGRG, 367.4, hit, 2, 0
1202, 9, T_Scon, T_Scon_DGRG, 966.9, hit, 2, 0
1203, 9, T_Scon, T_Scon_DGRG, 346.3, hit, 2, 0
1204, 9, T_Scon, T_Scon_URLR, 445.7, hit, 1, 0
1205, 9, T_Scon, T_Scon_URLR, 921.2, hit, 1, 0
1206, 9, T_Scon, T_Scon_URLR, 396.6, hit, 1, 0
1207, 9, T_Sinc, T_Sinc_DRLR, 416.0, hit, 1, 0
1208, 9, T_Scon, T_Scon_DGRG, 743.5, hit, 2, 0
1209, 9, T_Scon, T_Scon_DGRG, 546.9, hit, 2, 0
1210, 9, T_Scon, T_Scon_DGRG, 426.3, hit, 2, 0
1211, 9, T_Sinc, T_Sinc_DRLR, 469.8, hit, 1, 0
1212, 9, T_Scon, T_Scon_URLR, 957.2, hit, 1, 0
1213, 9, T_Sinc, T_Sinc_DRLR, 424.6, hit, 1, 0
1214, 9, T_Scon, T_Scon_URLR, 320.2, hit, 1, 0
1215, 9, T_Scon, T_Scon_DGRG, 395.6, hit, 2, 0
1216, 9, T_Sinc, T_Sinc_DRLR, 391.0, hit, 1, 0
1217, 9, T_Scon, T_Scon_DGRG, 650.4, hit, 2, 0
1218, 9, T_Scon, T_Scon_URLR, 533.9, hit, 1, 0
1219, 9, T_Sinc, T_Sinc_DRLR, 681.3, hit, 1, 0
1220, 9, T_Sinc, T_Sinc_DRLR, 300.7, hit, 1, 0
1221, 9, T_Scon, T_Scon_DGRG, 540.2, hit, 2, 0
1222, 9, T_Scon, T_Scon_DGRG, 355.6, incorrect, 1, 1
1223, 9, T_Scon, T_Scon_URLR, 451.1, hit, 1, 0
1224, 9, T_Sinc, T_Sinc_UGRG, 478.5, hit, 2, 0
1225, 9, T_Scon, T_Scon_URLR, 469.6, hit, 1, 0
1226, 9, T_Scon, T_Scon_DGRG, 545.1, hit, 2, 0
1227, 9, T_Scon, T_Scon_URLR, 412.5, hit, 1, 0
1228, 9, T_Scon, T_Scon_DGRG, 1087.9, hit, 2, 0
1229, 9, T_Sinc, T_Sinc_UGRG, 363.4, hit, 2, 0
1230, 9, T_Sinc, T_Sinc_DRLR, 466.9, hit, 1, 0
1231, 9, T_Scon, T_Scon_URLR, 458.2, hit, 1, 0
1232, 9, T_Scon, T_Scon_DGRG, 413.7, hit, 2, 0
1233, 9, T_Scon, T_Scon_DGRG, 769.1, hit, 2, 0
1234, 9, T_Scon, T_Scon_DGRG, 360.6, hit, 2, 0
1235, 9, T_Scon, T_Scon_DGRG, 352.0, hit, 2, 0
1236, 9, T_Scon, T_Scon_URLR, 351.5, hit, 1, 0
1237, 9, T_Scon, T_Scon_URLR, 338.8, hit, 1, 0
1238, 9, T_Scon, T_Scon_URLR, 282.3, hit, 1, 0
1239, 9, T_Scon, T_Scon_URLR, 285.8, hit, 1, 0
1240, 9, T_Scon, T_Scon_DGRG, 385.2, hit, 2, 0
1241, 9, T_Scon, T_Scon_DGRG, 440.6, hit, 2, 0
1242, 9, T_Sinc, T_Sinc_UGRG, 352.1, hit, 2, 0
1243, 9, T_Scon, T_Scon_URLR, 443.5, hit, 1, 0
1244, 9, T_Scon, T_Scon_DGRG, 470.9, hit, 2, 0
1245, 9, T_Scon, T_Scon_DGRG, 790.4, hit, 2, 0
1246, 9, T_Sinc, T_Sinc_DRLR, 413.9, hit, 1, 0
1247, 9, T_Scon, T_Scon_URLR, 697.2, hit, 1, 0
1248, 9, T_Sinc, T_Sinc_DRLR, 452.7, hit, 1, 0
1249, 9, T_Scon, T_Scon_URLR, 332.2, hit, 1, 0
1250, 9, T_Scon, T_Scon_DGRG, 379.5, hit, 2, 0
1251, 9, T_Scon, T_Scon_DGRG, 507.0, hit, 2, 0
1252, 9, T_Scon, T_Scon_URLR, 562.5, hit, 1, 0
1253, 9, T_Scon, T_Scon_URLR, 349.9, hit, 1, 0
1254, 9, T_Scon, T_Scon_URLR, 329.3, hit, 1, 0
1255, 9, T_Sinc, T_Sinc_DRLR, 392.8, hit, 1, 0
1256, 9, T_Scon, T_Scon_DGRG, 400.2, hit, 2, 0
1257, 9, T_Sinc, T_Sinc_UGRG, 403.6, incorrect, 1, 1
1258, 9, T_Scon, T_Scon_DGRG, 543.1, hit, 2, 0
1259, 9, T_Scon, T_Scon_DGRG, 370.6, hit, 2, 0
1260, 9, T_Scon, T_Scon_DGRG, 289.9, hit, 2, 0
1261, 9, T_Sinc, T_Sinc_UGRG, 657.1, hit, 2, 0
1262, 9, T_Scon, T_Scon_URLR, 396.6, hit, 1, 0
1263, 9, T_Scon, T_Scon_URLR, 332.0, hit, 1, 0
1264, 9, T_Sinc, T_Sinc_DRLR, 391.4, hit, 1, 0
1265, 9, T_Scon, T_Scon_DGRG, 450.9, hit, 2, 0
1266, 9, T_Scon, T_Scon_DGRG, 838.4, hit, 2, 0
1267, 9, T_Scon, T_Scon_DGRG, 305.7, hit, 2, 0
1268, 9, T_Scon, T_Scon_DGRG, 285.2, hit, 2, 0
1269, 9, T_Scon, T_Scon_URLR, 428.7, hit, 1, 0
1270, 9, T_Sinc, T_Sinc_UGRG, 584.0, hit, 2, 0
1271, 9, T_Sinc, T_Sinc_UGRG, 359.5, hit, 2, 0
1272, 9, T_Scon, T_Scon_URLR, 431.0, hit, 1, 0
1273, 9, T_Scon, T_Scon_DGRG, 610.4, hit, 2, 0
1274, 9, T_Scon, T_Scon_URLR, 453.8, hit, 1, 0
1275, 9, T_Scon, T_Scon_URLR, 429.3, hit, 1, 0
1276, 9, T_Scon, T_Scon_URLR, 364.7, hit, 1, 0
1277, 9, T_Scon, T_Scon_URLR, 280.1, hit, 1, 0
1278, 9, T_Sinc, T_Sinc_UGRG, 467.6, hit, 2, 0
1279, 9, T_Scon, T_Scon_URLR, 495.0, hit, 1, 0
1280, 9, T_Scon, T_Scon_URLR, 418.4, hit, 1, 0
1281, 9, T_Scon, T_Scon_DGRG, 385.9, hit, 2, 0
1282, 9, T_Sinc, T_Sinc_UGRG, 381.3, hit, 2, 0
1283, 9, T_Scon, T_Scon_DGRG, 336.8, hit, 2, 0
1284, 9, T_Scon, T_Scon_URLR, 496.2, hit, 1, 0
1285, 9, T_Sinc, T_Sinc_UGRG, 443.6, hit, 2, 0
1286, 9, T_Scon, T_Scon_URLR, 631.1, hit, 1, 0
1287, 9, T_Scon, T_Scon_URLR, 414.5, hit, 1, 0
1288, 9, T_Scon, T_Scon_URLR, 325.9, hit, 1, 0
1289, 9, T_Scon, T_Scon_DGRG, 857.4, hit, 2, 0
1290, 9, T_Sinc, T_Sinc_UGRG, 452.8, hit, 2, 0
1291, 9, T_Sinc, T_Sinc_UGRG, 356.2, hit, 2, 0
1292, 9, T_Scon, T_Scon_DGRG, 411.7, hit, 2, 0
1293, 9, T_Sinc, T_Sinc_DRLR, 463.2, hit, 1, 0
1294, 9, T_Scon, T_Scon_DGRG, 634.5, hit, 2, 0
1295, 9, T_Sinc, T_Sinc_DRLR, 830.0, hit, 1, 0
1296, 9, T_Sinc, T_Sinc_DRLR, 329.5, hit, 1, 0
