trial_index, block, condition, full_condition_code, RT, response_type, response_key, error_outlier
1, 1, T_Sinc, T_Sinc_DRLR, 767.1, hit, 1, 2
2, 1, T_Sinc, T_Sinc_UGRG, 706.6, hit, 2, 0
3, 1, T_Sinc, T_Sinc_UGRG, 558.0, hit, 2, 0
4, 1, T_Scon, T_Scon_DGRG, 401.5, hit, 2, 0
5, 1, T_Sinc, T_Sinc_UGRG, 412.9, hit, 2, 0
6, 1, T_Sinc, T_Sinc_DRLR, 520.3, hit, 1, 0
7, 1, T_Scon, T_Scon_DGRG, 587.8, hit, 2, 0
8, 1, T_Sinc, T_Sinc_UGRG, 415.1, hit, 2, 0
9, 1, T_Sinc, T_Sinc_UGRG, 494.6, hit, 2, 0
10, 1, T_Scon, T_Scon_DGRG, 494.0, hit, 2, 0
11, 1, T_Sinc, T_Sinc_UGRG, 449.5, hit, 2, 0
12, 1, T_Sinc, T_Sinc_DRLR, 516.9, hit, 1, 0
13, 1, T_Sinc, T_Sinc_UGRG, 416.4, hit, 2, 0
14, 1, T_Sinc, T_Sinc_DRLR, 723.8, hit, 1, 0
15, 1, T_Sinc, T_Sinc_DRLR, 463.3, hit, 1, 0
16, 1, T_Sinc, T_Sinc_DRLR, 318.7, hit, 1, 0
17, 1, T_Sinc, T_Sinc_DRLR, 458.2, hit, 1, 0
18, 1, T_Sinc, T_Sinc_UGRG, 373.5, hit, 2, 0
19, 1, T_Sinc, T_Sinc_UGRG, 393.0, hit, 2, 0
20, 1, T_Sinc, T_Sinc_DRLR, 484.4, hit, 1, 0
21, 1, T_Scon, T_Scon_URLR, 347.9, hit, 1, 0
22, 1, T_Sinc, T_Sinc_UGRG, 351.3, hit, 2, 0
23, 1, T_Sinc, T_Sinc_UGRG, 418.8, hit, 2, 0
24, 1, T_Sinc, T_Sinc_DRLR, 414.2, hit, 1, 0
25, 1, T_Sinc, T_Sinc_UGRG, 405.7, hit, 2, 0
26, 1, T_Sinc, T_Sinc_DRLR, 441.0, hit, 1, 0
27, 1, T_Sinc, T_Sinc_UGRG, 364.5, hit, 2, 0
28, 1, T_Sinc, T_Sinc_DRLR, 907.9, hit, 1, 2
29, 1, T_Sinc, T_Sinc_DRLR, 359.3, hit, 1, 0
30, 1, T_Sinc, T_Sinc_DRLR, 366.8, hit, 1, 0
31, 1, T_Sinc, T_Sinc_DRLR, 298.2, hit, 1, 0
32, 1, T_Sinc, T_Sinc_UGRG, 393.7, hit, 2, 0
33, 1, T_Sinc, T_Sinc_DRLR, 497.1, hit, 1, 0
34, 1, T_Sinc, T_Sinc_UGRG, 336.6, hit, 2, 0
35, 1, T_Scon, T_Scon_URLR, 396.0, hit, 1, 0
36, 1, T_Sinc, T_Sinc_UGRG, 407.4, hit, 2, 0
37, 1, T_Sinc, T_Sinc_DRLR, 642.6, hit, 1, 0
38, 1, T_Sinc, T_Sinc_DRLR, 406.0, hit, 1, 0
39, 1, T_Scon, T_Scon_URLR, 465.5, hit, 1, 0
40, 1, T_Scon, T_Scon_URLR, 428.9, hit, 1, 0
41, 1, T_Scon, T_Scon_DGRG, 368.3, hit, 2, 0
42, 1, T_Sinc, T_Sinc_UGRG, 407.7, hit, 2, 0
43, 1, T_Sinc, T_Sinc_UGRG, 439.2, hit, 2, 0
44, 1, T_Sinc, T_Sinc_DRLR, 346.6, hit, 1, 0
45, 1, T_Scon, T_Scon_DGRG, 442.1, hit, 2, 0
46, 1, T_Sinc, T_Sinc_UGRG, 421.5, hit, 2, 0
47, 1, T_Sinc, T_Sinc_UGRG, 361.0, hit, 2, 0
48, 1, T_Sinc, T_Sinc_UGRG, 284.4, hit, 2, 0
49, 1, T_Sinc, T_Sinc_DRLR, 447.9, hit, 1, 0
50, 1, T_Sinc, T_Sinc_UGRG, 383.3, hit, 2, 0
51, 1, T_Scon, T_Scon_URLR, 458.8, hit, 1, 0
52, 1, T_Sinc, T_Sinc_DRLR, 502.2, hit, 1, 0
53, 1, T_Sinc, T_Sinc_DRLR, 393.6, hit, 1, 0
54, 1, T_Sinc, T_Sinc_DRLR, 337.0, hit, 1, 0
55, 1, T_Sinc, T_Sinc_DRLR, 288.5, hit, 1, 0
56, 1, T_Sinc, T_Sinc_UGRG, 331.9, hit, 2, 0
57, 1, T_Scon, T_Scon_DGRG, 363.4, hit, 2, 0
58, 1, T_Sinc, T_Sinc_UGRG, 350.8, hit, 2, 0
59, 1, T_Sinc, T_Sinc_DRLR, 710.2, hit, 1, 0
60, 1, T_Sinc, T_Sinc_DRLR, 545.7, hit, 1, 0
61, 1, T_Sinc, T_Sinc_UGRG, 617.1, hit, 2, 0
62, 1, T_Sinc, T_Sinc_UGRG, 424.6, hit, 2, 0
63, 1, T_Sinc, T_Sinc_DRLR, 388.1, hit, 1, 0
64, 1, T_Scon, T_Scon_URLR, 407.4, hit, 1, 0
65, 1, T_Sinc, T_Sinc_UGRG, 394.8, hit, 2, 0
66, 1, T_Sinc, T_Sinc_DRLR, 502.3, hit, 1, 0
67, 1, T_Scon, T_Scon_URLR, 389.7, hit, 1, 0
68, 1, T_Scon, T_Scon_URLR, 329.2, hit, 1, 0
69, 1, T_Sinc, T_Sinc_UGRG, 388.6, hit, 2, 0
70, 1, T_Sinc, T_Sinc_UGRG, 432.1, hit, 2, 0
71, 1, T_Scon, T_Scon_URLR, 583.5, hit, 1, 0
72, 1, T_Sinc, T_Sinc_UGRG, 435.0, hit, 2, 0
73, 1, T_Sinc, T_Sinc_DRLR, 442.1, hit, 1, 0
74, 1, T_Sinc, T_Sinc_DRLR, 385.5, hit, 1, 0
75, 1, T_Sinc, T_Sinc_DRLR, 353.0, hit, 1, 0
76, 1, T_Scon, T_Scon_URLR, 468.4, hit, 1, 0
77, 1, T_Sinc, T_Sinc_DRLR, 443.9, hit, 1, 0
78, 1, T_Sinc, T_Sinc_UGRG, 451.3, hit, 2, 0
79, 1, T_Sinc, T_Sinc_UGRG, 310.8, hit, 2, 0
80, 1, T_Sinc, T_Sinc_UGRG, 282.1, hit, 2, 0
81, 1, T_Scon, T_Scon_DGRG, 433.6, hit, 2, 0
82, 1, T_Scon, T_Scon_DGRG, 353.0, hit, 2, 0
83, 1, T_Sinc, T_Sinc_DRLR, 356.5, hit, 1, 0
84, 1, T_Scon, T_Scon_URLR, 351.9, hit, 1, 0
85, 1, T_Sinc, T_Sinc_UGRG, 391.3, hit, 2, 0
86, 1, T_Sinc, T_Sinc_DRLR, 426.8, hit, 1, 0
87, 1, T_Sinc, T_Sinc_DRLR, 366.2, hit, 1, 0
88, 1, T_Sinc, T_Sinc_DRLR, 321.7, hit, 1, 0
89, 1, T_Sinc, T_Sinc_DRLR, 341.1, hit, 1, 0
90, 1, T_Scon, T_Scon_URLR, 384.6, hit, 1, 0
91, 1, T_Sinc, T_Sinc_DRLR, 307.9, hit, 1, 0
92, 1, T_Sinc, T_Sinc_UGRG, 355.4, hit, 2, 0
93, 1, T_Sinc, T_Sinc_UGRG, 370.8, hit, 2, 0
94, 1, T_Sinc, T_Sinc_UGRG, 338.3, hit, 2, 0
95, 1, T_Sinc, T_Sinc_DRLR, 377.8, hit, 1, 0
96, 1, T_Sinc, T_Sinc_UGRG, 509.1, hit, 2, 0
97, 1, T_Sinc, T_Sinc_DRLR, 416.6, hit, 1, 0
98, 1, T_Sinc, T_Sinc_DRLR, 364.0, hit, 1, 0
99, 1, T_Sinc, T_Sinc_UGRG, 503.5, hit, 2, 0
100, 1, T_Scon, T_Scon_URLR, 506.9, hit, 1, 0
101, 1, T_Sinc, T_Sinc_DRLR, 626.4, hit, 1, 0
102, 1, T_Scon, T_Scon_DGRG, 397.9, hit, 2, 0
103, 1, T_Sinc, T_Sinc_UGRG, 417.2, hit, 2, 0
104, 1, T_Sinc, T_Sinc_UGRG, 404.6, hit, 2, 0
105, 1, T_Sinc, T_Sinc_UGRG, 380.1, hit, 2, 0
106, 1, T_Scon, T_Scon_DGRG, 415.5, hit, 2, 0
107, 1, T_Sinc, T_Sinc_DRLR, 579.0, hit, 1, 0
108, 1, T_Sinc, T_Sinc_UGRG, 374.4, hit, 2, 0
109, 1, T_Scon, T_Scon_DGRG, 685.7, hit, 2, 0
110, 1, T_Scon, T_Scon_DGRG, 349.1, hit, 2, 0
111, 1, T_Sinc, T_Sinc_DRLR, 440.6, hit, 1, 0
112, 1, T_Sinc, T_Sinc_UGRG, 428.0, hit, 2, 0
113, 1, T_Sinc, T_Sinc_UGRG, 391.4, hit, 2, 0
114, 1, T_Sinc, T_Sinc_UGRG, 314.8, hit, 2, 0
115, 1, T_Sinc, T_Sinc_DRLR, 358.2, hit, 1, 0
116, 1, T_Sinc, T_Sinc_DRLR, 361.7, hit, 1, 0
117, 1, T_Scon, T_Scon_URLR, 509.1, hit, 1, 0
118, 1, T_Sinc, T_Sinc_UGRG, 480.6, hit, 2, 0
119, 1, T_Scon, T_Scon_DGRG, 372.0, hit, 2, 0
120, 1, T_Sinc, T_Sinc_UGRG, 391.5, hit, 2, 0
121, 1, T_Sinc, T_Sinc_UGRG, 343.0, hit, 2, 0
122, 1, T_Sinc, T_Sinc_UGRG, 326.4, hit, 2, 0
123, 1, T_Scon, T_Scon_URLR, 469.8, hit, 1, 0
124, 1, T_Scon, T_Scon_DGRG, 353.3, hit, 2, 0
125, 1, T_Scon, T_Scon_DGRG, 504.7, hit, 2, 0
126, 1, T_Scon, T_Scon_URLR, 920.1, hit, 1, 2
127, 1, T_Scon, T_Scon_DGRG, 319.5, hit, 2, 0
128, 1, T_Sinc, T_Sinc_DRLR, 522.9, hit, 1, 0
129, 1, T_Sinc, T_Sinc_DRLR, 342.4, hit, 1, 0
130, 1, T_Sinc, T_Sinc_UGRG, 409.8, hit, 2, 0
131, 1, T_Sinc, T_Sinc_DRLR, 485.3, hit, 1, 0
132, 1, T_Sinc, T_Sinc_UGRG, 412.7, hit, 2, 0
133, 1, T_Scon, T_Scon_URLR, 412.2, hit, 1, 0
134, 1, T_Sinc, T_Sinc_DRLR, 387.6, hit, 1, 0
135, 1, T_Sinc, T_Sinc_DRLR, 431.1, hit, 1, 0
136, 1, T_Sinc, T_Sinc_UGRG, 498.4, hit, 2, 0
137, 1, T_Scon, T_Scon_URLR, 397.9, hit, 1, 0
138, 1, T_Sinc, T_Sinc_UGRG, 377.3, hit, 2, 0
139, 1, T_Sinc, T_Sinc_DRLR, 372.8, hit, 1, 0
140, 1, T_Scon, T_Scon_DGRG, 380.2, hit, 2, 0
141, 1, T_Scon, T_Scon_DGRG, 515.7, hit, 2, 0
142, 1, T_Sinc, T_Sinc_DRLR, 431.1, hit, 1, 0
143, 1, T_Sinc, T_Sinc_DRLR, 434.6, hit, 1, 0
144, 1, T_Sinc, T_Sinc_DRLR, 406.0, hit, 1, 0
145, 2, T_Sinc, T_Sinc_UGRG, 555.2, hit, 2, 0
146, 2, T_Sinc, T_Sinc_UGRG, 274.6, hit, 2, 0
147, 2, T_Scon, T_Scon_URLR, 362.1, hit, 1, 0
148, 2, T_Sinc, T_Sinc_UGRG, 413.5, hit, 2, 0
149, 2, T_Sinc, T_Sinc_DRLR, 465.0, hit, 1, 0
150, 2, T_Sinc, T_Sinc_UGRG, 352.4, hit, 2, 0
151, 2, T_Sinc, T_Sinc_DRLR, 451.8, hit, 1, 0
152, 2, T_Sinc, T_Sinc_UGRG, 391.3, hit, 2, 0
153, 2, T_Sinc, T_Sinc_UGRG, 318.8, hit, 2, 0
154, 2, T_Scon, T_Scon_DGRG, 406.1, hit, 2, 0
155, 2, T_Scon, T_Scon_DGRG, 337.5, hit, 2, 0
156, 2, T_Sinc, T_Sinc_DRLR, 349.0, hit, 1, 0
157, 2, T_Scon, T_Scon_URLR, 444.4, hit, 1, 0
158, 2, T_Scon, T_Scon_DGRG, 351.9, hit, 2, 0
159, 2, T_Scon, T_Scon_URLR, 323.3, hit, 1, 0
160, 2, T_Scon, T_Scon_URLR, 686.8, hit, 1, 0
161, 2, T_Scon, T_Scon_URLR, 330.2, hit, 1, 0
162, 2, T_Sinc, T_Sinc_UGRG, 437.7, hit, 2, 0
163, 2, T_Sinc, T_Sinc_DRLR, 353.1, hit, 1, 0
164, 2, T_Sinc, T_Sinc_DRLR, 324.6, hit, 1, 0
165, 2, T_Scon, T_Scon_URLR, 376.0, hit, 1, 0
166, 2, T_Sinc, T_Sinc_UGRG, 387.4, hit, 2, 0
167, 2, T_Sinc, T_Sinc_DRLR, 318.9, hit, 1, 0
168, 2, T_Sinc, T_Sinc_DRLR, 418.3, hit, 1, 0
169, 2, T_Sinc, T_Sinc_UGRG, 413.8, hit, 2, 0
170, 2, T_Sinc, T_Sinc_DRLR, 417.2, hit, 1, 0
171, 2, T_Scon, T_Scon_DGRG, 372.7, hit, 2, 0
172, 2, T_Sinc, T_Sinc_UGRG, 448.0, hit, 2, 0
173, 2, T_Sinc, T_Sinc_UGRG, 327.5, hit, 2, 0
174, 2, T_Scon, T_Scon_DGRG, 462.9, hit, 2, 0
175, 2, T_Sinc, T_Sinc_UGRG, 338.4, hit, 2, 0
176, 2, T_Sinc, T_Sinc_UGRG, 357.8, hit, 2, 0
177, 2, T_Scon, T_Scon_DGRG, 409.3, hit, 2, 0
178, 2, T_Sinc, T_Sinc_DRLR, 516.7, hit, 1, 0
179, 2, T_Sinc, T_Sinc_DRLR, 420.2, hit, 1, 0
180, 2, T_Sinc, T_Sinc_UGRG, 403.6, hit, 2, 0
181, 2, T_Sinc, T_Sinc_UGRG, 530.8, hit, 2, 0
182, 2, T_Sinc, T_Sinc_UGRG, 294.2, hit, 2, 0
183, 2, T_Sinc, T_Sinc_DRLR, 417.6, hit, 1, 0
184, 2, T_Sinc, T_Sinc_DRLR, 397.1, hit, 1, 0
185, 2, T_Sinc, T_Sinc_DRLR, 368.5, hit, 1, 0
186, 2, T_Sinc, T_Sinc_DRLR, 327.9, hit, 1, 0
187, 2, T_Sinc, T_Sinc_DRLR, 403.3, hit, 1, 0
188, 2, T_Sinc, T_Sinc_UGRG, 454.8, hit, 2, 0
189, 2, T_Sinc, T_Sinc_DRLR, 514.2, hit, 1, 0
190, 2, T_Scon, T_Scon_DGRG, 381.7, hit, 2, 0
191, 2, T_Scon, T_Scon_DGRG, 409.1, hit, 2, 0
192, 2, T_Sinc, T_Sinc_DRLR, 384.6, hit, 1, 0
193, 2, T_Sinc, T_Sinc_UGRG, 388.0, hit, 2, 0
194, 2, T_Scon, T_Scon_DGRG, 355.5, hit, 2, 0
195, 2, T_Sinc, T_Sinc_DRLR, 454.9, hit, 1, 0
196, 2, T_Sinc, T_Sinc_DRLR, 362.4, hit, 1, 0
197, 2, T_Scon, T_Scon_URLR, 473.7, hit, 1, 0
198, 2, T_Sinc, T_Sinc_UGRG, 553.1, hit, 2, 0
199, 2, T_Sinc, T_Sinc_UGRG, 364.6, hit, 2, 0
200, 2, T_Sinc, T_Sinc_UGRG, 428.0, hit, 2, 0
201, 2, T_Sinc, T_Sinc_UGRG, 331.5, hit, 2, 0
202, 2, T_Scon, T_Scon_URLR, 382.9, hit, 1, 0
203, 2, T_Sinc, T_Sinc_DRLR, 382.4, hit, 1, 0
204, 2, T_Scon, T_Scon_DGRG, 425.8, hit, 2, 0
205, 2, T_Scon, T_Scon_DGRG, 329.3, hit, 2, 0
206, 2, T_Sinc, T_Sinc_DRLR, 416.7, hit, 1, 0
207, 2, T_Sinc, T_Sinc_UGRG, 356.2, hit, 2, 0
208, 2, T_Sinc, T_Sinc_DRLR, 515.5, hit, 1, 0
209, 2, T_Sinc, T_Sinc_DRLR, 363.0, hit, 1, 0
210, 2, T_Sinc, T_Sinc_DRLR, 370.4, hit, 1, 0
211, 2, T_Sinc, T_Sinc_DRLR, 329.9, hit, 1, 0
212, 2, T_Sinc, T_Sinc_UGRG, 321.3, hit, 2, 0
213, 2, T_Sinc, T_Sinc_UGRG, 364.8, hit, 2, 0
214, 2, T_Sinc, T_Sinc_UGRG, 336.2, hit, 2, 0
215, 2, T_Scon, T_Scon_URLR, 423.7, hit, 1, 0
216, 2, T_Scon, T_Scon_URLR, 359.1, hit, 1, 0
217, 2, T_Sinc, T_Sinc_DRLR, 786.3, hit, 1, 2
218, 2, T_Sinc, T_Sinc_UGRG, 457.7, hit, 2, 0
219, 2, T_Scon, T_Scon_URLR, 421.1, hit, 1, 0
220, 2, T_Sinc, T_Sinc_DRLR, 408.6, hit, 1, 0
221, 2, T_Scon, T_Scon_DGRG, 404.0, hit, 2, 0
222, 2, T_Sinc, T_Sinc_UGRG, 423.4, hit, 2, 0
223, 2, T_Sinc, T_Sinc_UGRG, 378.8, incorrect, 1, 1
224, 2, T_Sinc, T_Sinc_UGRG, 462.2, hit, 2, 0
225, 2, T_Sinc, T_Sinc_DRLR, 429.7, hit, 1, 0
226, 2, T_Sinc, T_Sinc_UGRG, 449.2, hit, 2, 0
227, 2, T_Scon, T_Scon_URLR, 412.6, hit, 1, 0
228, 2, T_Sinc, T_Sinc_DRLR, 400.0, hit, 1, 0
229, 2, T_Sinc, T_Sinc_UGRG, 491.5, hit, 2, 0
230, 2, T_Sinc, T_Sinc_DRLR, 539.0, hit, 1, 0
231, 2, T_Sinc, T_Sinc_UGRG, 418.4, hit, 2, 0
232, 2, T_Sinc, T_Sinc_UGRG, 321.9, incorrect, 1, 1
233, 2, T_Sinc, T_Sinc_UGRG, 477.3, hit, 2, 0
234, 2, T_Scon, T_Scon_DGRG, 308.7, hit, 2, 0
235, 2, T_Sinc, T_Sinc_DRLR, 392.1, hit, 1, 0
236, 2, T_Sinc, T_Sinc_DRLR, 551.5, hit, 1, 0
237, 2, T_Sinc, T_Sinc_DRLR, 331.0, hit, 1, 0
238, 2, T_Sinc, T_Sinc_UGRG, 446.4, hit, 2, 0
239, 2, T_Sinc, T_Sinc_DRLR, 369.9, hit, 1, 0
240, 2, T_Sinc, T_Sinc_DRLR, 381.3, hit, 1, 0
241, 2, T_Sinc, T_Sinc_UGRG, 432.8, hit, 2, 0
242, 2, T_Sinc, T_Sinc_UGRG, 400.2, hit, 2, 0
243, 2, T_Sinc, T_Sinc_UGRG, 331.7, hit, 2, 0
244, 2, T_Sinc, T_Sinc_UGRG, 351.1, hit, 2, 0
245, 2, T_Sinc, T_Sinc_DRLR, 386.5, hit, 1, 0
246, 2, T_Sinc, T_Sinc_UGRG, 373.9, hit, 2, 0
247, 2, T_Scon, T_Scon_URLR, 569.4, hit, 1, 0
248, 2, T_Scon, T_Scon_DGRG, 640.8, hit, 2, 0
249, 2, T_Scon, T_Scon_DGRG, 412.2, hit, 2, 0
250, 2, T_Sinc, T_Sinc_DRLR, 419.7, hit, 1, 0
251, 2, T_Sinc, T_Sinc_UGRG, 383.1, hit, 2, 0
252, 2, T_Sinc, T_Sinc_UGRG, 606.6, hit, 2, 0
253, 2, T_Sinc, T_Sinc_DRLR, 645.7, hit, 1, 0
254, 2, T_Sinc, T_Sinc_UGRG, 793.1, hit, 2, 2
255, 2, T_Scon, T_Scon_DGRG, 664.6, hit, 2, 0
256, 2, T_Scon, T_Scon_URLR, 428.1, hit, 1, 0
257, 2, T_Sinc, T_Sinc_UGRG, 447.5, hit, 2, 0
258, 2, T_Sinc, T_Sinc_DRLR, 359.0, hit, 1, 0
259, 2, T_Sinc, T_Sinc_DRLR, 338.4, hit, 1, 0
260, 2, T_Sinc, T_Sinc_DRLR, 429.7, hit, 1, 0
261, 2, T_Scon, T_Scon_DGRG, 393.2, hit, 2, 0
262, 2, T_Sinc, T_Sinc_UGRG, 468.6, hit, 2, 0
263, 2, T_Sinc, T_Sinc_UGRG, 432.1, hit, 2, 0
264, 2, T_Sinc, T_Sinc_UGRG, 315.5, hit, 2, 0
265, 2, T_Sinc, T_Sinc_DRLR, 383.0, hit, 1, 0
266, 2, T_Sinc, T_Sinc_UGRG, 446.3, hit, 2, 0
267, 2, T_Sinc, T_Sinc_UGRG, 441.8, hit, 2, 0
268, 2, T_Scon, T_Scon_URLR, 501.2, hit, 1, 0
269, 2, T_Sinc, T_Sinc_DRLR, 464.7, hit, 1, 0
270, 2, T_Sinc, T_Sinc_UGRG, 428.1, hit, 2, 0
271, 2, T_Sinc, T_Sinc_DRLR, 455.6, hit, 1, 0
272, 2, T_Scon, T_Scon_URLR, 363.0, hit, 1, 0
273, 2, T_Sinc, T_Sinc_UGRG, 426.5, hit, 2, 0
274, 2, T_Sinc, T_Sinc_DRLR, 417.9, hit, 1, 0
275, 2, T_Sinc, T_Sinc_DRLR, 345.4, hit, 1, 0
276, 2, T_Sinc, T_Sinc_DRLR, 340.8, hit, 1, 0
277, 2, T_Sinc, T_Sinc_UGRG, 396.3, hit, 2, 0
278, 2, T_Sinc, T_Sinc_DRLR, 367.7, hit, 1, 0
279, 2, T_Scon, T_Scon_DGRG, 503.1, hit, 2, 0
280, 2, T_Sinc, T_Sinc_DRLR, 498.5, hit, 1, 0
281, 2, T_Scon, T_Scon_URLR, 485.9, hit, 1, 0
282, 2, T_Sinc, T_Sinc_DRLR, 465.4, hit, 1, 0
283, 2, T_Sinc, T_Sinc_UGRG, 316.8, hit, 2, 0
284, 2, T_Sinc, T_Sinc_DRLR, 428.3, hit, 1, 0
285, 2, T_Sinc, T_Sinc_DRLR, 423.7, hit, 1, 0
286, 2, T_Sinc, T_Sinc_DRLR, 403.2, hit, 1, 0
287, 2, T_Sinc, T_Sinc_DRLR, 278.6, hit, 1, 0
288, 2, T_Scon, T_Scon_URLR, 482.1, hit, 1, 0
289, 3, T_Sinc, T_Sinc_UGRG, 484.1, hit, 2, 0
290, 3, T_Sinc, T_Sinc_UGRG, 319.5, hit, 2, 0
291, 3, T_Sinc, T_Sinc_UGRG, 283.0, hit, 2, 0
292, 3, T_Sinc, T_Sinc_UGRG, 350.4, hit, 2, 0
293, 3, T_Sinc, T_Sinc_DRLR, 385.9, hit, 1, 0
294, 3, T_Sinc, T_Sinc_UGRG, 405.3, hit, 2, 0
295, 3, T_Sinc, T_Sinc_DRLR, 396.8, hit, 1, 0
296, 3, T_Sinc, T_Sinc_DRLR, 320.1, hit, 1, 0
297, 3, T_Sinc, T_Sinc_UGRG, 391.6, hit, 2, 0
298, 3, T_Sinc, T_Sinc_UGRG, 443.0, hit, 2, 0
299, 3, T_Sinc, T_Sinc_DRLR, 478.5, hit, 1, 0
300, 3, T_Scon, T_Scon_URLR, 494.0, hit, 1, 0
301, 3, T_Sinc, T_Sinc_DRLR, 313.4, hit, 1, 0
302, 3, T_Sinc, T_Sinc_DRLR, 328.8, hit, 1, 0
303, 3, T_Sinc, T_Sinc_DRLR, 316.3, hit, 1, 0
304, 3, T_Scon, T_Scon_DGRG, 503.7, hit, 2, 0
305, 3, T_Scon, T_Scon_DGRG, 335.2, hit, 2, 0
306, 3, T_Scon, T_Scon_URLR, 370.6, hit, 1, 0
307, 3, T_Sinc, T_Sinc_UGRG, 342.0, incorrect, 1, 1
308, 3, T_Scon, T_Scon_URLR, 517.5, hit, 1, 0
309, 3, T_Scon, T_Scon_URLR, 368.8, hit, 1, 0
310, 3, T_Sinc, T_Sinc_UGRG, 524.3, hit, 2, 0
311, 3, T_Sinc, T_Sinc_UGRG, 559.7, hit, 2, 0
312, 3, T_Scon, T_Scon_DGRG, 435.2, hit, 2, 0
313, 3, T_Sinc, T_Sinc_UGRG, 534.6, hit, 2, 0
314, 3, T_Sinc, T_Sinc_UGRG, 290.1, hit, 2, 0
315, 3, T_Sinc, T_Sinc_UGRG, 377.5, hit, 2, 0
316, 3, T_Sinc, T_Sinc_DRLR, 509.0, hit, 1, 0
317, 3, T_Sinc, T_Sinc_DRLR, 448.4, hit, 1, 0
318, 3, T_Scon, T_Scon_URLR, 339.9, hit, 1, 0
319, 3, T_Sinc, T_Sinc_DRLR, 335.3, hit, 1, 0
320, 3, T_Sinc, T_Sinc_UGRG, 422.8, hit, 2, 0
321, 3, T_Sinc, T_Sinc_DRLR, 366.1, hit, 1, 0
322, 3, T_Sinc, T_Sinc_UGRG, 325.6, hit, 2, 0
323, 3, T_Sinc, T_Sinc_UGRG, 361.0, hit, 2, 0
324, 3, T_Scon, T_Scon_URLR, 428.5, hit, 1, 0
325, 3, T_Sinc, T_Sinc_UGRG, 587.6, hit, 2, 0
326, 3, T_Sinc, T_Sinc_UGRG, 375.0, hit, 2, 0
327, 3, T_Scon, T_Scon_DGRG, 386.5, hit, 2, 0
328, 3, T_Sinc, T_Sinc_UGRG, 293.9, hit, 2, 0
329, 3, T_Sinc, T_Sinc_DRLR, 385.4, hit, 1, 0
330, 3, T_Sinc, T_Sinc_UGRG, 380.8, hit, 2, 0
331, 3, T_Sinc, T_Sinc_UGRG, 476.3, hit, 2, 0
332, 3, T_Sinc, T_Sinc_UGRG, 355.7, hit, 2, 0
333, 3, T_Sinc, T_Sinc_DRLR, 407.1, hit, 1, 0
334, 3, T_Scon, T_Scon_URLR, 362.5, hit, 1, 0
335, 3, T_Sinc, T_Sinc_DRLR, 514.0, hit, 1, 0
336, 3, T_Sinc, T_Sinc_DRLR, 345.4, hit, 1, 0
337, 3, T_Sinc, T_Sinc_UGRG, 456.8, hit, 2, 0
338, 3, T_Sinc, T_Sinc_UGRG, 548.3, hit, 2, 0
339, 3, T_Sinc, T_Sinc_DRLR, 455.7, hit, 1, 0
340, 3, T_Sinc, T_Sinc_DRLR, 375.2, hit, 1, 0
341, 3, T_Scon, T_Scon_URLR, 626.7, hit, 1, 0
342, 3, T_Scon, T_Scon_DGRG, 454.1, hit, 2, 0
343, 3, T_Scon, T_Scon_URLR, 441.4, hit, 1, 0
344, 3, T_Sinc, T_Sinc_DRLR, 428.9, hit, 1, 0
345, 3, T_Sinc, T_Sinc_UGRG, 436.3, hit, 2, 0
346, 3, T_Scon, T_Scon_DGRG, 527.8, hit, 2, 0
347, 3, T_Sinc, T_Sinc_UGRG, 539.2, hit, 2, 0
348, 3, T_Scon, T_Scon_DGRG, 502.7, hit, 2, 0
349, 3, T_Sinc, T_Sinc_DRLR, 426.1, hit, 1, 0
350, 3, T_Sinc, T_Sinc_UGRG, 429.6, incorrect, 1, 1
351, 3, T_Sinc, T_Sinc_UGRG, 565.0, hit, 2, 0
352, 3, T_Scon, T_Scon_URLR, 584.5, hit, 1, 0
353, 3, T_Sinc, T_Sinc_UGRG, 499.9, hit, 2, 0
354, 3, T_Sinc, T_Sinc_DRLR, 527.3, hit, 1, 0
355, 3, T_Sinc, T_Sinc_UGRG, 782.7, hit, 2, 2
356, 3, T_Sinc, T_Sinc_UGRG, 554.1, hit, 2, 0
357, 3, T_Sinc, T_Sinc_DRLR, 509.6, hit, 1, 0
358, 3, T_Sinc, T_Sinc_DRLR, 501.1, hit, 1, 0
359, 3, T_Sinc, T_Sinc_UGRG, 384.5, hit, 2, 0
360, 3, T_Sinc, T_Sinc_DRLR, 388.0, hit, 1, 0
361, 3, T_Sinc, T_Sinc_UGRG, 887.1, hit, 2, 2
362, 3, T_Scon, T_Scon_DGRG, 386.5, hit, 2, 0
363, 3, T_Sinc, T_Sinc_DRLR, 410.0, hit, 1, 0
364, 3, T_Sinc, T_Sinc_UGRG, 445.4, hit, 2, 0
365, 3, T_Sinc, T_Sinc_DRLR, 488.9, hit, 1, 0
366, 3, T_Sinc, T_Sinc_DRLR, 484.3, hit, 1, 0
367, 3, T_Scon, T_Scon_DGRG, 431.8, hit, 2, 0
368, 3, T_Sinc, T_Sinc_DRLR, 387.2, hit, 1, 0
369, 3, T_Sinc, T_Sinc_DRLR, 354.7, hit, 1, 0
370, 3, T_Scon, T_Scon_DGRG, 486.1, hit, 2, 0
371, 3, T_Sinc, T_Sinc_DRLR, 489.5, hit, 1, 0
372, 3, T_Sinc, T_Sinc_DRLR, 380.9, hit, 1, 0
373, 3, T_Scon, T_Scon_DGRG, 376.3, hit, 2, 0
374, 3, T_Sinc, T_Sinc_DRLR, 611.8, hit, 1, 0
375, 3, T_Sinc, T_Sinc_UGRG, 511.2, hit, 2, 0
376, 3, T_Sinc, T_Sinc_UGRG, 486.7, hit, 2, 0
377, 3, T_Sinc, T_Sinc_UGRG, 410.1, hit, 2, 0
378, 3, T_Sinc, T_Sinc_UGRG, 437.6, hit, 2, 0
379, 3, T_Sinc, T_Sinc_DRLR, 465.0, hit, 1, 0
380, 3, T_Sinc, T_Sinc_DRLR, 480.5, hit, 1, 0
381, 3, T_Scon, T_Scon_URLR, 535.9, hit, 1, 0
382, 3, T_Scon, T_Scon_URLR, 447.4, hit, 1, 0
383, 3, T_Sinc, T_Sinc_DRLR, 442.7, hit, 1, 0
384, 3, T_Sinc, T_Sinc_DRLR, 442.2, hit, 1, 0
385, 3, T_Sinc, T_Sinc_UGRG, 421.6, hit, 2, 0
386, 3, T_Scon, T_Scon_DGRG, 689.1, hit, 2, 0
387, 3, T_Scon, T_Scon_DGRG, 696.5, hit, 2, 0
388, 3, T_Sinc, T_Sinc_UGRG, 479.9, hit, 2, 0
389, 3, T_Sinc, T_Sinc_UGRG, 395.4, hit, 2, 0
390, 3, T_Scon, T_Scon_URLR, 834.8, hit, 1, 2
391, 3, T_Sinc, T_Sinc_UGRG, 590.3, hit, 2, 0
392, 3, T_Sinc, T_Sinc_DRLR, 557.7, hit, 1, 0
393, 3, T_Sinc, T_Sinc_DRLR, 377.2, hit, 1, 0
394, 3, T_Sinc, T_Sinc_UGRG, 508.6, hit, 2, 0
395, 3, T_Sinc, T_Sinc_UGRG, 464.1, hit, 2, 0
396, 3, T_Sinc, T_Sinc_DRLR, 451.5, hit, 1, 0
397, 3, T_Sinc, T_Sinc_DRLR, 514.7, hit, 1, 0
398, 3, T_Scon, T_Scon_URLR, 378.1, hit, 1, 0
399, 3, T_Scon, T_Scon_URLR, 305.5, hit, 1, 0
400, 3, T_Sinc, T_Sinc_UGRG, 401.0, hit, 2, 0
401, 3, T_Sinc, T_Sinc_DRLR, 460.4, hit, 1, 0
402, 3, T_Scon, T_Scon_URLR, 359.9, hit, 1, 0
403, 3, T_Scon, T_Scon_URLR, 787.3, hit, 1, 0
404, 3, T_Sinc, T_Sinc_UGRG, 434.7, hit, 2, 0
405, 3, T_Sinc, T_Sinc_UGRG, 394.1, hit, 2, 0
406, 3, T_Scon, T_Scon_DGRG, 421.6, hit, 2, 0
407, 3, T_Sinc, T_Sinc_UGRG, 389.0, hit, 2, 0
408, 3, T_Scon, T_Scon_URLR, 480.4, hit, 1, 0
409, 3, T_Sinc, T_Sinc_DRLR, 427.9, hit, 1, 0
410, 3, T_Sinc, T_Sinc_DRLR, 367.4, hit, 1, 0
411, 3, T_Sinc, T_Sinc_DRLR, 446.8, hit, 1, 0
412, 3, T_Sinc, T_Sinc_UGRG, 486.2, hit, 2, 0
413, 3, T_Sinc, T_Sinc_DRLR, 489.7, hit, 1, 0
414, 3, T_Sinc, T_Sinc_DRLR, 433.2, hit, 1, 0
415, 3, T_Scon, T_Scon_DGRG, 460.6, hit, 2, 0
416, 3, T_Sinc, T_Sinc_UGRG, 555.9, hit, 2, 0
417, 3, T_Sinc, T_Sinc_UGRG, 407.4, hit, 2, 0
418, 3, T_Sinc, T_Sinc_UGRG, 566.8, hit, 2, 0
419, 3, T_Sinc, T_Sinc_DRLR, 646.3, hit, 1, 0
420, 3, T_Sinc, T_Sinc_UGRG, 509.7, hit, 2, 0
421, 3, T_Sinc, T_Sinc_DRLR, 513.2, hit, 1, 0
422, 3, T_Sinc, T_Sinc_DRLR, 708.6, hit, 1, 0
423, 3, T_Sinc, T_Sinc_DRLR, 416.1, hit, 1, 0
424, 3, T_Scon, T_Scon_DGRG, 607.5, hit, 2, 0
425, 3, T_Sinc, T_Sinc_DRLR, 443.0, hit, 1, 0
426, 3, T_Sinc, T_Sinc_DRLR, 342.3, hit, 1, 0
427, 3, T_Sinc, T_Sinc_DRLR, 393.8, hit, 1, 0
428, 3, T_Scon, T_Scon_DGRG, 461.2, hit, 2, 0
429, 3, T_Sinc, T_Sinc_DRLR, 468.7, hit, 1, 0
430, 3, T_Scon, T_Scon_DGRG, 404.1, hit, 2, 0
431, 3, T_Sinc, T_Sinc_DRLR, 591.6, hit, 1, 0
432, 3, T_Sinc, T_Sinc_UGRG, 475.0, hit, 2, 0
433, 4, T_Scon, T_Scon_DGRG, 501.6, hit, 2, 0
434, 4, T_Sinc, T_Sinc_UGRG, 449.0, hit, 2, 0
435, 4, T_Scon, T_Scon_URLR, 400.4, hit, 1, 0
436, 4, T_Scon, T_Scon_URLR, 339.9, hit, 1, 0
437, 4, T_Sinc, T_Sinc_UGRG, 415.3, hit, 2, 0
438, 4, T_Sinc, T_Sinc_DRLR, 430.7, hit, 1, 0
439, 4, T_Scon, T_Scon_DGRG, 458.2, hit, 2, 0
440, 4, T_Scon, T_Scon_DGRG, 421.6, hit, 2, 0
441, 4, T_Scon, T_Scon_URLR, 477.0, hit, 1, 0
442, 4, T_Scon, T_Scon_DGRG, 384.4, hit, 2, 0
443, 4, T_Sinc, T_Sinc_UGRG, 399.9, hit, 2, 0
444, 4, T_Sinc, T_Sinc_UGRG, 371.3, hit, 2, 0
445, 4, T_Scon, T_Scon_URLR, 434.8, hit, 1, 0
446, 4, T_Sinc, T_Sinc_DRLR, 398.2, hit, 1, 0
447, 4, T_Scon, T_Scon_URLR, 505.7, hit, 1, 0
448, 4, T_Scon, T_Scon_DGRG, 457.1, hit, 2, 0
449, 4, T_Sinc, T_Sinc_DRLR, 408.5, hit, 1, 0
450, 4, T_Scon, T_Scon_URLR, 852.0, hit, 1, 2
451, 4, T_Scon, T_Scon_URLR, 599.4, hit, 1, 0
452, 4, T_Sinc, T_Sinc_UGRG, 470.8, hit, 2, 0
453, 4, T_Scon, T_Scon_DGRG, 498.3, hit, 2, 0
454, 4, T_Scon, T_Scon_DGRG, 341.7, hit, 2, 0
455, 4, T_Scon, T_Scon_DGRG, 353.2, hit, 2, 0
456, 4, T_Scon, T_Scon_DGRG, 348.6, hit, 2, 0
457, 4, T_Sinc, T_Sinc_UGRG, 512.1, hit, 2, 0
458, 4, T_Scon, T_Scon_URLR, 547.5, hit, 1, 0
459, 4, T_Scon, T_Scon_DGRG, 458.9, hit, 2, 0
460, 4, T_Scon, T_Scon_DGRG, 370.4, hit, 2, 0
461, 4, T_Scon, T_Scon_URLR, 577.8, hit, 1, 0
462, 4, T_Scon, T_Scon_DGRG, 445.2, hit, 2, 0
463, 4, T_Scon, T_Scon_DGRG, 312.6, hit, 2, 0
464, 4, T_Scon, T_Scon_URLR, 380.1, hit, 1, 0
465, 4, T_Scon, T_Scon_URLR, 351.5, hit, 1, 0
466, 4, T_Scon, T_Scon_URLR, 519.0, hit, 1, 0
467, 4, T_Scon, T_Scon_DGRG, 426.4, hit, 2, 0
468, 4, T_Scon, T_Scon_DGRG, 313.9, hit, 2, 0
469, 4, T_Scon, T_Scon_URLR, 885.0, hit, 1, 2
470, 4, T_Scon, T_Scon_DGRG, 408.4, hit, 2, 0
471, 4, T_Scon, T_Scon_URLR, 431.9, hit, 1, 0
472, 4, T_Scon, T_Scon_DGRG, 387.3, hit, 2, 0
473, 4, T_Sinc, T_Sinc_DRLR, 582.8, hit, 1, 0
474, 4, T_Scon, T_Scon_DGRG, 434.2, hit, 2, 0
475, 4, T_Sinc, T_Sinc_DRLR, 589.7, hit, 1, 0
476, 4, T_Scon, T_Scon_URLR, 393.1, hit, 1, 0
477, 4, T_Scon, T_Scon_DGRG, 364.5, hit, 2, 0
478, 4, T_Scon, T_Scon_URLR, 379.9, hit, 1, 0
479, 4, T_Scon, T_Scon_URLR, 435.4, hit, 1, 0
480, 4, T_Scon, T_Scon_DGRG, 366.8, hit, 2, 0
481, 4, T_Scon, T_Scon_DGRG, 370.3, hit, 2, 0
482, 4, T_Sinc, T_Sinc_DRLR, 493.7, hit, 1, 0
483, 4, T_Scon, T_Scon_DGRG, 497.1, hit, 2, 0
484, 4, T_Sinc, T_Sinc_UGRG, 540.6, hit, 2, 0
485, 4, T_Scon, T_Scon_URLR, 412.1, hit, 1, 0
486, 4, T_Scon, T_Scon_URLR, 467.5, hit, 1, 0
487, 4, T_Sinc, T_Sinc_DRLR, 366.9, hit, 1, 0
488, 4, T_Scon, T_Scon_URLR, 478.4, hit, 1, 0
489, 4, T_Scon, T_Scon_URLR, 441.8, hit, 1, 0
490, 4, T_Sinc, T_Sinc_DRLR, 409.3, hit, 1, 0
491, 4, T_Sinc, T_Sinc_UGRG, 576.6, hit, 2, 0
492, 4, T_Scon, T_Scon_URLR, 400.1, hit, 1, 0
493, 4, T_Scon, T_Scon_URLR, 339.5, hit, 1, 0
494, 4, T_Scon, T_Scon_URLR, 407.0, hit, 1, 0
495, 4, T_Sinc, T_Sinc_UGRG, 626.4, hit, 2, 0
496, 4, T_Sinc, T_Sinc_DRLR, 413.9, hit, 1, 0
497, 4, T_Sinc, T_Sinc_DRLR, 361.3, hit, 1, 0
498, 4, T_Scon, T_Scon_URLR, 484.8, hit, 1, 0
499, 4, T_Sinc, T_Sinc_DRLR, 372.2, hit, 1, 0
500, 4, T_Scon, T_Scon_URLR, 367.7, hit, 1, 0
501, 4, T_Scon, T_Scon_DGRG, 399.1, hit, 2, 0
502, 4, T_Scon, T_Scon_DGRG, 354.5, hit, 2, 0
503, 4, T_Sinc, T_Sinc_UGRG, 365.9, hit, 2, 0
504, 4, T_Scon, T_Scon_DGRG, 541.4, hit, 2, 0
505, 4, T_Scon, T_Scon_URLR, 684.6, hit, 1, 0
506, 4, T_Scon, T_Scon_URLR, 496.0, hit, 1, 0
507, 4, T_Sinc, T_Sinc_UGRG, 479.5, hit, 2, 0
508, 4, T_Scon, T_Scon_URLR, 386.9, hit, 1, 0
509, 4, T_Scon, T_Scon_URLR, 366.4, hit, 1, 0
510, 4, T_Scon, T_Scon_URLR, 321.7, hit, 1, 0
511, 4, T_Scon, T_Scon_URLR, 329.2, hit, 1, 0
512, 4, T_Sinc, T_Sinc_DRLR, 436.6, hit, 1, 0
513, 4, T_Scon, T_Scon_URLR, 432.1, hit, 1, 0
514, 4, T_Scon, T_Scon_URLR, 383.5, hit, 1, 0
515, 4, T_Sinc, T_Sinc_UGRG, 387.0, incorrect, 1, 1
516, 4, T_Scon, T_Scon_DGRG, 510.4, hit, 2, 0
517, 4, T_Scon, T_Scon_DGRG, 393.8, hit, 2, 0
518, 4, T_Scon, T_Scon_DGRG, 325.3, hit, 2, 0
519, 4, T_Scon, T_Scon_URLR, 340.7, hit, 1, 0
520, 4, T_Scon, T_Scon_DGRG, 368.1, hit, 2, 0
521, 4, T_Sinc, T_Sinc_UGRG, 463.5, hit, 2, 0
522, 4, T_Sinc, T_Sinc_DRLR, 467.0, hit, 1, 0
523, 4, T_Sinc, T_Sinc_UGRG, 646.4, hit, 2, 0
524, 4, T_Scon, T_Scon_DGRG, 681.9, hit, 2, 0
525, 4, T_Scon, T_Scon_DGRG, 329.3, hit, 2, 0
526, 4, T_Scon, T_Scon_DGRG, 276.8, hit, 2, 0
527, 4, T_Scon, T_Scon_URLR, 344.2, hit, 1, 0
528, 4, T_Scon, T_Scon_DGRG, 419.6, incorrect, 1, 1
529, 4, T_Scon, T_Scon_DGRG, 279.0, hit, 2, 0
530, 4, T_Scon, T_Scon_DGRG, 294.5, hit, 2, 0
531, 4, T_Scon, T_Scon_DGRG, 321.9, hit, 2, 0
532, 4, T_Scon, T_Scon_DGRG, 313.4, hit, 2, 0
533, 4, T_Sinc, T_Sinc_DRLR, 544.8, hit, 1, 0
534, 4, T_Scon, T_Scon_URLR, 644.3, hit, 1, 0
535, 4, T_Scon, T_Scon_DGRG, 427.7, hit, 2, 0
536, 4, T_Scon, T_Scon_DGRG, 383.2, hit, 2, 0
537, 4, T_Sinc, T_Sinc_DRLR, 378.6, hit, 1, 0
538, 4, T_Scon, T_Scon_URLR, 438.1, hit, 1, 0
539, 4, T_Scon, T_Scon_URLR, 313.4, hit, 1, 0
540, 4, T_Scon, T_Scon_URLR, 352.9, hit, 1, 0
541, 4, T_Scon, T_Scon_URLR, 580.1, hit, 1, 0
542, 4, T_Scon, T_Scon_DGRG, 359.5, hit, 2, 0
543, 4, T_Scon, T_Scon_URLR, 459.0, hit, 1, 0
544, 4, T_Scon, T_Scon_DGRG, 386.4, hit, 2, 0
545, 4, T_Scon, T_Scon_DGRG, 449.9, hit, 2, 0
546, 4, T_Scon, T_Scon_URLR, 501.3, hit, 1, 0
547, 4, T_Scon, T_Scon_DGRG, 352.7, hit, 2, 0
548, 4, T_Scon, T_Scon_DGRG, 352.1, hit, 2, 0
549, 4, T_Scon, T_Scon_URLR, 619.5, hit, 1, 0
550, 4, T_Scon, T_Scon_DGRG, 383.0, hit, 2, 0
551, 4, T_Scon, T_Scon_URLR, 626.4, hit, 1, 0
552, 4, T_Scon, T_Scon_DGRG, 453.9, hit, 2, 0
553, 4, T_Scon, T_Scon_URLR, 377.3, hit, 1, 0
554, 4, T_Scon, T_Scon_URLR, 432.8, hit, 1, 0
555, 4, T_Scon, T_Scon_URLR, 420.2, hit, 1, 0
556, 4, T_Sinc, T_Sinc_DRLR, 551.7, hit, 1, 0
557, 4, T_Scon, T_Scon_URLR, 407.1, hit, 1, 0
558, 4, T_Scon, T_Scon_DGRG, 466.6, hit, 2, 0
559, 4, T_Scon, T_Scon_DGRG, 518.0, hit, 2, 0
560, 4, T_Scon, T_Scon_URLR, 373.4, hit, 1, 0
561, 4, T_Sinc, T_Sinc_UGRG, 496.8, hit, 2, 0
562, 4, T_Scon, T_Scon_DGRG, 364.3, hit, 2, 0
563, 4, T_Scon, T_Scon_URLR, 415.7, hit, 1, 0
564, 4, T_Sinc, T_Sinc_DRLR, 463.2, hit, 1, 0
565, 4, T_Sinc, T_Sinc_UGRG, 426.6, hit, 2, 0
566, 4, T_Sinc, T_Sinc_UGRG, 366.1, incorrect, 1, 1
567, 4, T_Sinc, T_Sinc_DRLR, 489.5, hit, 1, 0
568, 4, T_Scon, T_Scon_DGRG, 373.0, hit, 2, 0
569, 4, T_Scon, T_Scon_URLR, 416.3, hit, 1, 0
570, 4, T_Scon, T_Scon_URLR, 471.7, hit, 1, 0
571, 4, T_Scon, T_Scon_DGRG, 399.2, hit, 2, 0
572, 4, T_Scon, T_Scon_DGRG, 490.6, hit, 2, 0
573, 4, T_Sinc, T_Sinc_UGRG, 446.1, hit, 2, 0
574, 4, T_Scon, T_Scon_DGRG, 325.5, hit, 2, 0
575, 4, T_Scon, T_Scon_DGRG, 321.0, hit, 2, 0
576, 4, T_Scon, T_Scon_URLR, 356.4, hit, 1, 0
577, 5, T_Sinc, T_Sinc_DRLR, 683.0, hit, 1, 0
578, 5, T_Scon, T_Scon_DGRG, 426.4, hit, 2, 0
579, 5, T_Scon, T_Scon_DGRG, 517.8, hit, 2, 0
580, 5, T_Scon, T_Scon_DGRG, 393.2, hit, 2, 0
581, 5, T_Scon, T_Scon_DGRG, 348.7, hit, 2, 0
582, 5, T_Sinc, T_Sinc_UGRG, 440.2, hit, 2, 0
583, 5, T_Sinc, T_Sinc_UGRG, 435.6, hit, 2, 0
584, 5, T_Scon, T_Scon_URLR, 575.0, hit, 1, 0
585, 5, T_Scon, T_Scon_DGRG, 394.5, hit, 2, 0
586, 5, T_Scon, T_Scon_URLR, 685.9, hit, 1, 0
587, 5, T_Sinc, T_Sinc_DRLR, 293.4, hit, 1, 0
588, 5, T_Scon, T_Scon_DGRG, 400.7, hit, 2, 0
589, 5, T_Sinc, T_Sinc_UGRG, 348.2, hit, 2, 0
590, 5, T_Scon, T_Scon_URLR, 539.6, hit, 1, 0
591, 5, T_Sinc, T_Sinc_UGRG, 519.0, hit, 2, 0
592, 5, T_Sinc, T_Sinc_UGRG, 546.5, hit, 2, 0
593, 5, T_Scon, T_Scon_DGRG, 381.9, hit, 2, 0
594, 5, T_Scon, T_Scon_URLR, 393.4, hit, 1, 0
595, 5, T_Scon, T_Scon_DGRG, 444.8, hit, 2, 0
596, 5, T_Scon, T_Scon_DGRG, 372.3, hit, 2, 0
597, 5, T_Scon, T_Scon_URLR, 435.7, hit, 1, 0
598, 5, T_Scon, T_Scon_DGRG, 503.2, hit, 2, 0
599, 5, T_Scon, T_Scon_DGRG, 398.6, hit, 2, 0
600, 5, T_Scon, T_Scon_DGRG, 398.1, hit, 2, 0
601, 5, T_Sinc, T_Sinc_UGRG, 429.5, hit, 2, 0
602, 5, T_Scon, T_Scon_URLR, 420.9, hit, 1, 0
603, 5, T_Scon, T_Scon_URLR, 384.3, hit, 1, 0
604, 5, T_Sinc, T_Sinc_DRLR, 451.8, hit, 1, 0
605, 5, T_Scon, T_Scon_DGRG, 511.2, hit, 2, 0
606, 5, T_Scon, T_Scon_URLR, 498.6, hit, 1, 0
607, 5, T_Sinc, T_Sinc_DRLR, 414.1, hit, 1, 0
608, 5, T_Scon, T_Scon_DGRG, 473.5, hit, 2, 0
609, 5, T_Scon, T_Scon_URLR, 609.0, hit, 1, 0
610, 5, T_Scon, T_Scon_URLR, 1092.4, hit, 1, 2
611, 5, T_Scon, T_Scon_URLR, 387.9, hit, 1, 0
612, 5, T_Sinc, T_Sinc_UGRG, 427.2, hit, 2, 0
613, 5, T_Scon, T_Scon_URLR, 1378.5, hit, 1, 2
614, 5, T_Sinc, T_Sinc_DRLR, 549.9, hit, 1, 0
615, 5, T_Sinc, T_Sinc_UGRG, 505.4, hit, 2, 0
616, 5, T_Scon, T_Scon_DGRG, 368.7, hit, 2, 0
617, 5, T_Scon, T_Scon_URLR, 404.2, hit, 1, 0
618, 5, T_Scon, T_Scon_DGRG, 351.6, hit, 2, 0
619, 5, T_Scon, T_Scon_URLR, 499.1, hit, 1, 0
620, 5, T_Scon, T_Scon_URLR, 782.5, hit, 1, 0
621, 5, T_Scon, T_Scon_URLR, 429.9, hit, 1, 0
622, 5, T_Sinc, T_Sinc_UGRG, 365.4, hit, 2, 0
623, 5, T_Scon, T_Scon_URLR, 512.8, hit, 1, 0
624, 5, T_Scon, T_Scon_URLR, 452.3, hit, 1, 0
625, 5, T_Scon, T_Scon_URLR, 331.7, hit, 1, 0
626, 5, T_Scon, T_Scon_URLR, 327.2, hit, 1, 0
627, 5, T_Scon, T_Scon_URLR, 506.6, hit, 1, 0
628, 5, T_Sinc, T_Sinc_DRLR, 478.1, hit, 1, 0
629, 5, T_Scon, T_Scon_DGRG, 681.5, hit, 2, 0
630, 5, T_Sinc, T_Sinc_UGRG, 765.0, hit, 2, 2
631, 5, T_Scon, T_Scon_DGRG, 552.4, hit, 2, 0
632, 5, T_Sinc, T_Sinc_UGRG, 423.8, hit, 2, 0
633, 5, T_Scon, T_Scon_DGRG, 355.3, hit, 2, 0
634, 5, T_Sinc, T_Sinc_DRLR, 422.7, hit, 1, 0
635, 5, T_Scon, T_Scon_DGRG, 370.2, hit, 2, 0
636, 5, T_Scon, T_Scon_URLR, 413.6, hit, 1, 0
637, 5, T_Sinc, T_Sinc_DRLR, 505.1, hit, 1, 0
638, 5, T_Sinc, T_Sinc_DRLR, 400.4, hit, 1, 0
639, 5, T_Scon, T_Scon_DGRG, 479.9, hit, 2, 0
640, 5, T_Scon, T_Scon_DGRG, 487.3, hit, 2, 0
641, 5, T_Scon, T_Scon_URLR, 362.8, hit, 1, 0
642, 5, T_Scon, T_Scon_DGRG, 330.2, hit, 2, 0
643, 5, T_Scon, T_Scon_URLR, 365.7, hit, 1, 0
644, 5, T_Sinc, T_Sinc_DRLR, 533.1, hit, 1, 0
645, 5, T_Sinc, T_Sinc_UGRG, 444.6, hit, 2, 0
646, 5, T_Scon, T_Scon_URLR, 396.0, hit, 1, 0
647, 5, T_Scon, T_Scon_URLR, 359.5, hit, 1, 0
648, 5, T_Scon, T_Scon_URLR, 394.9, hit, 1, 0
649, 5, T_Scon, T_Scon_DGRG, 526.1, hit, 2, 0
650, 5, T_Scon, T_Scon_DGRG, 353.5, hit, 2, 0
651, 5, T_Sinc, T_Sinc_UGRG, 432.9, hit, 2, 0
652, 5, T_Scon, T_Scon_DGRG, 340.4, hit, 2, 0
653, 5, T_Scon, T_Scon_URLR, 651.8, hit, 1, 0
654, 5, T_Scon, T_Scon_URLR, 463.3, hit, 1, 0
655, 5, T_Scon, T_Scon_URLR, 506.6, hit, 1, 0
656, 5, T_Scon, T_Scon_URLR, 390.1, hit, 1, 0
657, 5, T_Sinc, T_Sinc_UGRG, 505.5, hit, 2, 0
658, 5, T_Scon, T_Scon_DGRG, 416.9, hit, 2, 0
659, 5, T_Scon, T_Scon_DGRG, 420.4, hit, 2, 0
660, 5, T_Scon, T_Scon_DGRG, 527.8, hit, 2, 0
661, 5, T_Scon, T_Scon_URLR, 503.3, hit, 1, 0
662, 5, T_Scon, T_Scon_URLR, 466.6, hit, 1, 0
663, 5, T_Sinc, T_Sinc_DRLR, 430.1, hit, 1, 0
664, 5, T_Scon, T_Scon_DGRG, 421.6, hit, 2, 0
665, 5, T_Scon, T_Scon_DGRG, 457.0, hit, 2, 0
666, 5, T_Scon, T_Scon_URLR, 668.4, hit, 1, 0
667, 5, T_Scon, T_Scon_DGRG, 367.9, hit, 2, 0
668, 5, T_Scon, T_Scon_URLR, 455.3, hit, 1, 0
669, 5, T_Scon, T_Scon_URLR, 610.8, hit, 1, 0
670, 5, T_Scon, T_Scon_DGRG, 662.2, hit, 2, 0
671, 5, T_Scon, T_Scon_DGRG, 361.7, hit, 2, 0
672, 5, T_Sinc, T_Sinc_UGRG, 597.1, hit, 2, 0
673, 5, T_Scon, T_Scon_DGRG, 296.6, hit, 2, 0
674, 5, T_Scon, T_Scon_DGRG, 355.9, hit, 2, 0
675, 5, T_Scon, T_Scon_DGRG, 299.4, hit, 2, 0
676, 5, T_Scon, T_Scon_URLR, 434.8, hit, 1, 0
677, 5, T_Scon, T_Scon_URLR, 294.3, hit, 1, 0
678, 5, T_Scon, T_Scon_URLR, 353.7, hit, 1, 0
679, 5, T_Scon, T_Scon_DGRG, 389.2, hit, 2, 0
680, 5, T_Scon, T_Scon_DGRG, 284.6, hit, 2, 0
681, 5, T_Sinc, T_Sinc_DRLR, 448.0, hit, 1, 0
682, 5, T_Scon, T_Scon_URLR, 539.4, hit, 1, 0
683, 5, T_Scon, T_Scon_DGRG, 394.8, hit, 2, 0
684, 5, T_Scon, T_Scon_DGRG, 310.3, hit, 2, 0
685, 5, T_Scon, T_Scon_DGRG, 373.6, hit, 2, 0
686, 5, T_Scon, T_Scon_URLR, 557.0, hit, 1, 0
687, 5, T_Scon, T_Scon_DGRG, 452.4, hit, 2, 0
688, 5, T_Scon, T_Scon_DGRG, 415.9, hit, 2, 0
689, 5, T_Sinc, T_Sinc_UGRG, 483.2, hit, 2, 0
690, 5, T_Scon, T_Scon_URLR, 866.6, hit, 1, 2
691, 5, T_Sinc, T_Sinc_DRLR, 494.1, hit, 1, 0
692, 5, T_Scon, T_Scon_URLR, 485.5, hit, 1, 0
693, 5, T_Scon, T_Scon_DGRG, 401.0, hit, 2, 0
694, 5, T_Scon, T_Scon_DGRG, 512.4, hit, 2, 0
695, 5, T_Scon, T_Scon_URLR, 383.9, hit, 1, 0
696, 5, T_Sinc, T_Sinc_DRLR, 355.3, hit, 1, 0
697, 5, T_Scon, T_Scon_URLR, 414.7, hit, 1, 0
698, 5, T_Scon, T_Scon_URLR, 362.1, hit, 1, 0
699, 5, T_Scon, T_Scon_URLR, 461.6, hit, 1, 0
700, 5, T_Sinc, T_Sinc_DRLR, 453.0, hit, 1, 0
701, 5, T_Scon, T_Scon_URLR, 312.5, hit, 1, 0
702, 5, T_Scon, T_Scon_URLR, 427.9, hit, 1, 0
703, 5, T_Sinc, T_Sinc_DRLR, 335.4, hit, 1, 0
704, 5, T_Scon, T_Scon_URLR, 362.8, hit, 1, 0
705, 5, T_Scon, T_Scon_URLR, 370.3, hit, 1, 0
706, 5, T_Scon, T_Scon_DGRG, 461.7, hit, 2, 0
707, 5, T_Sinc, T_Sinc_DRLR, 485.1, hit, 1, 0
708, 5, T_Sinc, T_Sinc_UGRG, 508.5, hit, 2, 0
709, 5, T_Scon, T_Scon_DGRG, 487.9, hit, 2, 0
710, 5, T_Scon, T_Scon_DGRG, 479.4, hit, 2, 0
711, 5, T_Scon, T_Scon_DGRG, 314.9, hit, 2, 0
712, 5, T_Scon, T_Scon_DGRG, 330.3, hit, 2, 0
713, 5, T_Scon, T_Scon_URLR, 361.7, hit, 1, 0
714, 5, T_Scon, T_Scon_URLR, 381.2, hit, 1, 0
715, 5, T_Scon, T_Scon_URLR, 488.6, hit, 1, 0
716, 5, T_Sinc, T_Sinc_DRLR, 412.1, hit, 1, 0
717, 5, T_Scon, T_Scon_DGRG, 511.4, hit, 2, 0
718, 5, T_Sinc, T_Sinc_UGRG, 418.9, incorrect, 1, 1
719, 5, T_Scon, T_Scon_DGRG, 342.3, hit, 2, 0
720, 5, T_Scon, T_Scon_DGRG, 401.8, hit, 2, 0
721, 6, T_Sinc, T_Sinc_DRLR, 479.4, hit, 1, 0
722, 6, T_Scon, T_Scon_URLR, 474.9, hit, 1, 0
723, 6, T_Scon, T_Scon_DGRG, 454.3, hit, 2, 0
724, 6, T_Scon, T_Scon_URLR, 369.8, hit, 1, 0
725, 6, T_Scon, T_Scon_URLR, 381.2, hit, 1, 0
726, 6, T_Sinc, T_Sinc_UGRG, 580.6, hit, 2, 0
727, 6, T_Scon, T_Scon_URLR, 504.1, hit, 1, 0
728, 6, T_Scon, T_Scon_URLR, 411.5, hit, 1, 0
729, 6, T_Sinc, T_Sinc_UGRG, 566.9, hit, 2, 0
730, 6, T_Scon, T_Scon_DGRG, 458.3, hit, 2, 0
731, 6, T_Scon, T_Scon_DGRG, 373.8, hit, 2, 0
732, 6, T_Scon, T_Scon_URLR, 669.2, hit, 1, 0
733, 6, T_Scon, T_Scon_DGRG, 520.7, hit, 2, 0
734, 6, T_Scon, T_Scon_DGRG, 340.1, hit, 2, 0
735, 6, T_Scon, T_Scon_URLR, 403.6, hit, 1, 0
736, 6, T_Scon, T_Scon_URLR, 518.9, hit, 1, 0
737, 6, T_Scon, T_Scon_URLR, 310.4, hit, 1, 0
738, 6, T_Scon, T_Scon_DGRG, 437.8, hit, 2, 0
739, 6, T_Scon, T_Scon_DGRG, 361.3, hit, 2, 0
740, 6, T_Scon, T_Scon_DGRG, 324.7, hit, 2, 0
741, 6, T_Scon, T_Scon_URLR, 412.2, hit, 1, 0
742, 6, T_Scon, T_Scon_DGRG, 359.6, hit, 2, 0
743, 6, T_Scon, T_Scon_DGRG, 355.1, hit, 2, 0
744, 6, T_Scon, T_Scon_URLR, 358.5, hit, 1, 0
745, 6, T_Scon, T_Scon_DGRG, 433.9, hit, 2, 0
746, 6, T_Sinc, T_Sinc_DRLR, 373.4, hit, 1, 0
747, 6, T_Sinc, T_Sinc_DRLR, 484.8, hit, 1, 0
748, 6, T_Sinc, T_Sinc_UGRG, 452.3, hit, 2, 0
749, 6, T_Scon, T_Scon_DGRG, 315.6, hit, 2, 0
750, 6, T_Sinc, T_Sinc_DRLR, 439.1, hit, 1, 0
751, 6, T_Scon, T_Scon_URLR, 486.5, hit, 1, 0
752, 6, T_Sinc, T_Sinc_UGRG, 410.0, hit, 2, 0
753, 6, T_Scon, T_Scon_URLR, 357.4, hit, 1, 0
754, 6, T_Scon, T_Scon_URLR, 440.9, hit, 1, 0
755, 6, T_Scon, T_Scon_URLR, 404.3, hit, 1, 0
756, 6, T_Sinc, T_Sinc_UGRG, 483.8, hit, 2, 0
757, 6, T_Scon, T_Scon_DGRG, 498.9, hit, 2, 0
758, 6, T_Scon, T_Scon_URLR, 414.3, hit, 1, 0
759, 6, T_Scon, T_Scon_DGRG, 509.8, hit, 2, 0
760, 6, T_Scon, T_Scon_DGRG, 553.2, hit, 2, 0
761, 6, T_Scon, T_Scon_DGRG, 492.7, hit, 2, 0
762, 6, T_Scon, T_Scon_DGRG, 416.1, hit, 2, 0
763, 6, T_Sinc, T_Sinc_UGRG, 531.6, hit, 2, 0
764, 6, T_Scon, T_Scon_URLR, 419.0, hit, 1, 0
765, 6, T_Scon, T_Scon_URLR, 486.4, hit, 1, 0
766, 6, T_Scon, T_Scon_URLR, 401.8, hit, 1, 0
767, 6, T_Scon, T_Scon_DGRG, 377.3, hit, 2, 0
768, 6, T_Scon, T_Scon_DGRG, 364.7, hit, 2, 0
769, 6, T_Scon, T_Scon_DGRG, 432.2, hit, 2, 0
770, 6, T_Scon, T_Scon_URLR, 371.6, hit, 1, 0
771, 6, T_Sinc, T_Sinc_DRLR, 291.1, hit, 1, 0
772, 6, T_Scon, T_Scon_DGRG, 430.4, hit, 2, 0
773, 6, T_Scon, T_Scon_DGRG, 305.9, hit, 2, 0
774, 6, T_Sinc, T_Sinc_UGRG, 373.3, hit, 2, 0
775, 6, T_Scon, T_Scon_DGRG, 340.8, hit, 2, 0
776, 6, T_Scon, T_Scon_URLR, 392.2, hit, 1, 0
777, 6, T_Scon, T_Scon_URLR, 555.6, hit, 1, 0
778, 6, T_Scon, T_Scon_URLR, 391.1, hit, 1, 0
779, 6, T_Scon, T_Scon_URLR, 578.5, hit, 1, 0
780, 6, T_Scon, T_Scon_DGRG, 430.0, hit, 2, 0
781, 6, T_Sinc, T_Sinc_DRLR, 481.3, hit, 1, 0
782, 6, T_Scon, T_Scon_URLR, 364.8, incorrect, 2, 1
783, 6, T_Scon, T_Scon_URLR, 392.2, hit, 1, 0
784, 6, T_Scon, T_Scon_URLR, 407.7, hit, 1, 0
785, 6, T_Scon, T_Scon_DGRG, 507.1, hit, 2, 0
786, 6, T_Scon, T_Scon_URLR, 390.6, hit, 1, 0
787, 6, T_Scon, T_Scon_DGRG, 382.0, hit, 2, 0
788, 6, T_Scon, T_Scon_DGRG, 409.5, hit, 2, 0
789, 6, T_Scon, T_Scon_URLR, 380.9, hit, 1, 0
790, 6, T_Scon, T_Scon_DGRG, 416.4, hit, 2, 0
791, 6, T_Scon, T_Scon_URLR, 555.7, hit, 1, 0
792, 6, T_Scon, T_Scon_DGRG, 447.2, hit, 2, 0
793, 6, T_Scon, T_Scon_URLR, 506.4, hit, 1, 0
794, 6, T_Scon, T_Scon_URLR, 1037.8, hit, 1, 2
795, 6, T_Scon, T_Scon_DGRG, 441.3, hit, 2, 0
796, 6, T_Scon, T_Scon_DGRG, 356.6, hit, 2, 0
797, 6, T_Scon, T_Scon_URLR, 420.1, hit, 1, 0
798, 6, T_Scon, T_Scon_DGRG, 495.5, hit, 2, 0
799, 6, T_Scon, T_Scon_DGRG, 359.0, hit, 2, 0
800, 6, T_Sinc, T_Sinc_DRLR, 462.4, hit, 1, 0
801, 6, T_Scon, T_Scon_URLR, 0.1, miss, 2078838, 1
802, 6, T_Sinc, T_Sinc_DRLR, 589.3, hit, 1, 0
803, 6, T_Scon, T_Scon_DGRG, 396.8, hit, 2, 0
804, 6, T_Scon, T_Scon_URLR, 440.2, hit, 1, 0
805, 6, T_Sinc, T_Sinc_UGRG, 595.6, hit, 2, 0
806, 6, T_Scon, T_Scon_DGRG, 395.1, hit, 2, 0
807, 6, T_Sinc, T_Sinc_UGRG, 430.6, hit, 2, 0
808, 6, T_Scon, T_Scon_DGRG, 493.9, hit, 2, 0
809, 6, T_Sinc, T_Sinc_UGRG, 345.4, incorrect, 1, 1
810, 6, T_Scon, T_Scon_DGRG, 308.8, hit, 2, 0
811, 6, T_Scon, T_Scon_URLR, 352.2, hit, 1, 0
812, 6, T_Scon, T_Scon_DGRG, 407.7, hit, 2, 0
813, 6, T_Scon, T_Scon_URLR, 623.1, hit, 1, 0
814, 6, T_Scon, T_Scon_URLR, 370.6, hit, 1, 0
815, 6, T_Scon, T_Scon_URLR, 570.0, hit, 1, 0
816, 6, T_Scon, T_Scon_URLR, 397.5, hit, 1, 0
817, 6, T_Scon, T_Scon_URLR, 360.9, hit, 1, 0
818, 6, T_Sinc, T_Sinc_DRLR, 340.4, hit, 1, 0
819, 6, T_Scon, T_Scon_DGRG, 455.8, hit, 2, 0
820, 6, T_Scon, T_Scon_URLR, 403.2, hit, 1, 0
821, 6, T_Scon, T_Scon_DGRG, 454.6, hit, 2, 0
822, 6, T_Scon, T_Scon_URLR, 402.1, hit, 1, 0
823, 6, T_Scon, T_Scon_DGRG, 477.5, hit, 2, 0
824, 6, T_Scon, T_Scon_DGRG, 353.0, hit, 2, 0
825, 6, T_Scon, T_Scon_URLR, 364.4, hit, 1, 0
826, 6, T_Scon, T_Scon_DGRG, 407.8, hit, 2, 0
827, 6, T_Scon, T_Scon_DGRG, 439.3, hit, 2, 0
828, 6, T_Sinc, T_Sinc_DRLR, 410.7, hit, 1, 0
829, 6, T_Scon, T_Scon_DGRG, 790.0, hit, 2, 0
830, 6, T_Scon, T_Scon_DGRG, 349.3, hit, 2, 0
831, 6, T_Sinc, T_Sinc_UGRG, 616.7, hit, 2, 0
832, 6, T_Sinc, T_Sinc_DRLR, 428.2, hit, 1, 0
833, 6, T_Sinc, T_Sinc_UGRG, 459.6, hit, 2, 0
834, 6, T_Scon, T_Scon_URLR, 539.1, hit, 1, 0
835, 6, T_Sinc, T_Sinc_UGRG, 438.5, hit, 2, 0
836, 6, T_Scon, T_Scon_URLR, 390.0, hit, 1, 0
837, 6, T_Scon, T_Scon_DGRG, 473.4, hit, 2, 0
838, 6, T_Scon, T_Scon_URLR, 336.9, hit, 1, 0
839, 6, T_Sinc, T_Sinc_DRLR, 392.2, hit, 1, 0
840, 6, T_Sinc, T_Sinc_UGRG, 491.7, hit, 2, 0
841, 6, T_Scon, T_Scon_URLR, 403.1, hit, 1, 0
842, 6, T_Sinc, T_Sinc_UGRG, 606.6, hit, 2, 0
843, 6, T_Scon, T_Scon_DGRG, 794.0, incorrect, 1, 1
844, 6, T_Scon, T_Scon_URLR, 365.5, hit, 1, 0
845, 6, T_Sinc, T_Sinc_DRLR, 392.9, hit, 1, 0
846, 6, T_Sinc, T_Sinc_UGRG, 492.4, hit, 2, 0
847, 6, T_Sinc, T_Sinc_DRLR, 379.8, hit, 1, 0
848, 6, T_Scon, T_Scon_DGRG, 491.3, hit, 2, 0
849, 6, T_Scon, T_Scon_URLR, 522.7, hit, 1, 0
850, 6, T_Scon, T_Scon_DGRG, 446.1, hit, 2, 0
851, 6, T_Sinc, T_Sinc_DRLR, 473.5, hit, 1, 0
852, 6, T_Scon, T_Scon_URLR, 361.0, hit, 1, 0
853, 6, T_Scon, T_Scon_DGRG, 360.4, hit, 2, 0
854, 6, T_Scon, T_Scon_DGRG, 435.8, hit, 2, 0
855, 6, T_Scon, T_Scon_DGRG, 355.3, hit, 2, 0
856, 6, T_Sinc, T_Sinc_DRLR, 426.7, hit, 1, 0
857, 6, T_Scon, T_Scon_DGRG, 458.2, hit, 2, 0
858, 6, T_Scon, T_Scon_URLR, 373.6, hit, 1, 0
859, 6, T_Scon, T_Scon_URLR, 425.1, hit, 1, 0
860, 6, T_Sinc, T_Sinc_UGRG, 408.5, hit, 2, 0
861, 6, T_Sinc, T_Sinc_DRLR, 388.0, hit, 1, 0
862, 6, T_Sinc, T_Sinc_DRLR, 291.3, hit, 1, 0
863, 6, T_Sinc, T_Sinc_UGRG, 690.8, hit, 2, 0
864, 6, T_Scon, T_Scon_URLR, 622.2, hit, 1, 0
865, 7, T_Sinc, T_Sinc_UGRG, 474.2, hit, 2, 0
866, 7, T_Sinc, T_Sinc_UGRG, 293.7, hit, 2, 0
867, 7, T_Sinc, T_Sinc_UGRG, 313.0, hit, 2, 0
868, 7, T_Scon, T_Scon_DGRG, 340.5, hit, 2, 0
869, 7, T_Scon, T_Scon_DGRG, 311.9, hit, 2, 0
870, 7, T_Sinc, T_Sinc_DRLR, 367.3, hit, 1, 0
871, 7, T_Sinc, T_Sinc_DRLR, 402.8, hit, 1, 0
872, 7, T_Sinc, T_Sinc_DRLR, 302.2, hit, 1, 0
873, 7, T_Sinc, T_Sinc_UGRG, 409.7, hit, 2, 0
874, 7, T_Scon, T_Scon_URLR, 333.1, hit, 1, 0
875, 7, T_Sinc, T_Sinc_DRLR, 516.6, hit, 1, 0
876, 7, T_Sinc, T_Sinc_UGRG, 599.9, hit, 2, 0
877, 7, T_Scon, T_Scon_DGRG, 523.4, hit, 2, 0
878, 7, T_Sinc, T_Sinc_DRLR, 582.8, hit, 1, 0
879, 7, T_Scon, T_Scon_DGRG, 410.3, hit, 2, 0
880, 7, T_Sinc, T_Sinc_DRLR, 397.7, hit, 1, 0
881, 7, T_Sinc, T_Sinc_UGRG, 401.2, hit, 2, 0
882, 7, T_Sinc, T_Sinc_UGRG, 452.6, hit, 2, 0
883, 7, T_Scon, T_Scon_URLR, 896.0, hit, 1, 2
884, 7, T_Sinc, T_Sinc_UGRG, 475.5, hit, 2, 0
885, 7, T_Sinc, T_Sinc_UGRG, 527.0, hit, 2, 0
886, 7, T_Scon, T_Scon_URLR, 426.4, hit, 1, 0
887, 7, T_Scon, T_Scon_URLR, 477.8, hit, 1, 0
888, 7, T_Sinc, T_Sinc_UGRG, 425.2, hit, 2, 0
889, 7, T_Sinc, T_Sinc_UGRG, 532.6, hit, 2, 0
890, 7, T_Sinc, T_Sinc_UGRG, 536.1, hit, 2, 0
891, 7, T_Scon, T_Scon_URLR, 479.5, hit, 1, 0
892, 7, T_Sinc, T_Sinc_UGRG, 483.0, hit, 2, 0
893, 7, T_Sinc, T_Sinc_UGRG, 418.5, hit, 2, 0
894, 7, T_Sinc, T_Sinc_UGRG, 477.9, hit, 2, 0
895, 7, T_Sinc, T_Sinc_DRLR, 401.3, hit, 1, 0
896, 7, T_Scon, T_Scon_DGRG, 376.8, hit, 2, 0
897, 7, T_Scon, T_Scon_DGRG, 468.1, hit, 2, 0
898, 7, T_Sinc, T_Sinc_DRLR, 443.6, hit, 1, 0
899, 7, T_Sinc, T_Sinc_UGRG, 411.0, hit, 2, 0
900, 7, T_Sinc, T_Sinc_DRLR, 410.5, hit, 1, 0
901, 7, T_Sinc, T_Sinc_DRLR, 965.7, hit, 1, 2
902, 7, T_Sinc, T_Sinc_UGRG, 449.1, hit, 2, 0
903, 7, T_Scon, T_Scon_URLR, 308.6, hit, 1, 0
904, 7, T_Sinc, T_Sinc_UGRG, 408.0, hit, 2, 0
905, 7, T_Sinc, T_Sinc_DRLR, 355.5, hit, 1, 0
906, 7, T_Sinc, T_Sinc_UGRG, 466.9, hit, 2, 0
907, 7, T_Sinc, T_Sinc_DRLR, 326.3, hit, 1, 0
908, 7, T_Sinc, T_Sinc_UGRG, 401.7, hit, 2, 0
909, 7, T_Sinc, T_Sinc_UGRG, 409.2, hit, 2, 0
910, 7, T_Scon, T_Scon_URLR, 444.6, hit, 1, 0
911, 7, T_Sinc, T_Sinc_DRLR, 364.1, hit, 1, 0
912, 7, T_Sinc, T_Sinc_UGRG, 379.5, hit, 2, 0
913, 7, T_Sinc, T_Sinc_DRLR, 511.0, hit, 1, 0
914, 7, T_Sinc, T_Sinc_DRLR, 482.4, hit, 1, 0
915, 7, T_Sinc, T_Sinc_DRLR, 341.8, hit, 1, 0
916, 7, T_Sinc, T_Sinc_UGRG, 421.3, hit, 2, 0
917, 7, T_Scon, T_Scon_DGRG, 552.7, hit, 2, 0
918, 7, T_Sinc, T_Sinc_DRLR, 480.2, hit, 1, 0
919, 7, T_Sinc, T_Sinc_UGRG, 575.6, hit, 2, 0
920, 7, T_Sinc, T_Sinc_DRLR, 387.1, hit, 1, 0
921, 7, T_Scon, T_Scon_URLR, 550.4, hit, 1, 0
922, 7, T_Sinc, T_Sinc_UGRG, 389.9, hit, 2, 0
923, 7, T_Sinc, T_Sinc_DRLR, 381.3, hit, 1, 0
924, 7, T_Scon, T_Scon_DGRG, 412.8, hit, 2, 0
925, 7, T_Sinc, T_Sinc_DRLR, 440.2, hit, 1, 0
926, 7, T_Sinc, T_Sinc_DRLR, 395.7, hit, 1, 0
927, 7, T_Sinc, T_Sinc_DRLR, 359.1, hit, 1, 0
928, 7, T_Sinc, T_Sinc_UGRG, 486.5, hit, 2, 0
929, 7, T_Sinc, T_Sinc_DRLR, 393.9, hit, 1, 0
930, 7, T_Sinc, T_Sinc_UGRG, 377.4, hit, 2, 0
931, 7, T_Scon, T_Scon_URLR, 476.8, hit, 1, 0
932, 7, T_Sinc, T_Sinc_UGRG, 504.3, hit, 2, 0
933, 7, T_Scon, T_Scon_URLR, 315.7, hit, 1, 0
934, 7, T_Sinc, T_Sinc_DRLR, 751.1, hit, 1, 2
935, 7, T_Sinc, T_Sinc_DRLR, 386.6, hit, 1, 0
936, 7, T_Sinc, T_Sinc_DRLR, 358.1, hit, 1, 0
937, 7, T_Scon, T_Scon_URLR, 593.2, hit, 1, 0
938, 7, T_Sinc, T_Sinc_UGRG, 532.6, hit, 2, 0
939, 7, T_Sinc, T_Sinc_UGRG, 528.1, hit, 2, 0
940, 7, T_Scon, T_Scon_URLR, 579.5, hit, 1, 0
941, 7, T_Sinc, T_Sinc_DRLR, 455.0, hit, 1, 0
942, 7, T_Sinc, T_Sinc_UGRG, 510.4, hit, 2, 0
943, 7, T_Sinc, T_Sinc_DRLR, 553.8, hit, 1, 0
944, 7, T_Scon, T_Scon_DGRG, 541.2, hit, 2, 0
945, 7, T_Sinc, T_Sinc_UGRG, 404.7, hit, 2, 0
946, 7, T_Sinc, T_Sinc_DRLR, 592.1, hit, 1, 0
947, 7, T_Sinc, T_Sinc_DRLR, 291.5, hit, 1, 0
948, 7, T_Sinc, T_Sinc_UGRG, 423.0, hit, 2, 0
949, 7, T_Sinc, T_Sinc_UGRG, 410.4, hit, 2, 0
950, 7, T_Sinc, T_Sinc_UGRG, 345.9, hit, 2, 0
951, 7, T_Scon, T_Scon_URLR, 429.3, hit, 1, 0
952, 7, T_Scon, T_Scon_URLR, 572.8, hit, 1, 0
953, 7, T_Sinc, T_Sinc_DRLR, 544.2, hit, 1, 0
954, 7, T_Sinc, T_Sinc_UGRG, 475.6, hit, 2, 0
955, 7, T_Sinc, T_Sinc_DRLR, 399.0, hit, 1, 0
956, 7, T_Scon, T_Scon_DGRG, 474.5, hit, 2, 0
957, 7, T_Sinc, T_Sinc_DRLR, 417.9, hit, 1, 0
958, 7, T_Scon, T_Scon_DGRG, 533.3, hit, 2, 0
959, 7, T_Sinc, T_Sinc_UGRG, 340.8, hit, 2, 0
960, 7, T_Sinc, T_Sinc_UGRG, 356.3, hit, 2, 0
961, 7, T_Sinc, T_Sinc_DRLR, 403.7, hit, 1, 0
962, 7, T_Scon, T_Scon_DGRG, 515.2, hit, 2, 0
963, 7, T_Sinc, T_Sinc_UGRG, 494.6, incorrect, 1, 1
964, 7, T_Sinc, T_Sinc_DRLR, 586.0, incorrect, 2, 1
965, 7, T_Sinc, T_Sinc_UGRG, 413.4, hit, 2, 0
966, 7, T_Sinc, T_Sinc_DRLR, 348.9, hit, 1, 0
967, 7, T_Sinc, T_Sinc_DRLR, 408.3, hit, 1, 0
968, 7, T_Sinc, T_Sinc_DRLR, 395.8, hit, 1, 0
969, 7, T_Sinc, T_Sinc_DRLR, 335.2, hit, 1, 0
970, 7, T_Sinc, T_Sinc_DRLR, 270.7, hit, 1, 0
971, 7, T_Scon, T_Scon_URLR, 362.0, hit, 1, 0
972, 7, T_Sinc, T_Sinc_DRLR, 301.4, hit, 1, 0
973, 7, T_Scon, T_Scon_DGRG, 484.7, hit, 2, 0
974, 7, T_Sinc, T_Sinc_UGRG, 360.1, hit, 2, 0
975, 7, T_Scon, T_Scon_URLR, 379.6, hit, 1, 0
976, 7, T_Sinc, T_Sinc_DRLR, 319.0, hit, 1, 0
977, 7, T_Sinc, T_Sinc_DRLR, 326.5, hit, 1, 0
978, 7, T_Sinc, T_Sinc_UGRG, 417.9, hit, 2, 0
979, 7, T_Sinc, T_Sinc_UGRG, 493.2, hit, 2, 0
980, 7, T_Sinc, T_Sinc_DRLR, 432.7, hit, 1, 0
981, 7, T_Sinc, T_Sinc_UGRG, 468.1, hit, 2, 0
982, 7, T_Scon, T_Scon_DGRG, 367.6, hit, 2, 0
983, 7, T_Sinc, T_Sinc_UGRG, 327.0, incorrect, 1, 1
984, 7, T_Scon, T_Scon_DGRG, 398.5, hit, 2, 0
985, 7, T_Sinc, T_Sinc_UGRG, 309.9, hit, 2, 0
986, 7, T_Sinc, T_Sinc_DRLR, 365.4, hit, 1, 0
987, 7, T_Sinc, T_Sinc_UGRG, 840.8, hit, 2, 2
988, 7, T_Sinc, T_Sinc_DRLR, 380.2, hit, 1, 0
989, 7, T_Sinc, T_Sinc_UGRG, 503.6, hit, 2, 0
990, 7, T_Sinc, T_Sinc_DRLR, 359.1, hit, 1, 0
991, 7, T_Scon, T_Scon_DGRG, 610.5, hit, 2, 0
992, 7, T_Sinc, T_Sinc_DRLR, 482.0, hit, 1, 0
993, 7, T_Sinc, T_Sinc_UGRG, 397.4, hit, 2, 0
994, 7, T_Scon, T_Scon_URLR, 380.9, hit, 1, 0
995, 7, T_Sinc, T_Sinc_DRLR, 628.3, hit, 1, 0
996, 7, T_Scon, T_Scon_DGRG, 487.8, hit, 2, 0
997, 7, T_Sinc, T_Sinc_UGRG, 443.1, hit, 2, 0
998, 7, T_Sinc, T_Sinc_DRLR, 490.6, hit, 1, 0
999, 7, T_Scon, T_Scon_DGRG, 342.0, hit, 2, 0
1000, 7, T_Sinc, T_Sinc_UGRG, 349.4, hit, 2, 0
1001, 7, T_Sinc, T_Sinc_DRLR, 360.9, hit, 1, 0
1002, 7, T_Sinc, T_Sinc_DRLR, 392.3, hit, 1, 0
1003, 7, T_Sinc, T_Sinc_DRLR, 395.8, hit, 1, 0
1004, 7, T_Sinc, T_Sinc_UGRG, 391.2, hit, 2, 0
1005, 7, T_Scon, T_Scon_URLR, 402.7, hit, 1, 0
1006, 7, T_Sinc, T_Sinc_UGRG, 390.1, hit, 2, 0
1007, 7, T_Sinc, T_Sinc_UGRG, 469.6, hit, 2, 0
1008, 7, T_Sinc, T_Sinc_DRLR, 373.0, hit, 1, 0
1009, 8, T_Sinc, T_Sinc_UGRG, 447.5, hit, 2, 0
1010, 8, T_Scon, T_Scon_URLR, 619.0, hit, 1, 0
1011, 8, T_Scon, T_Scon_URLR, 398.4, hit, 1, 0
1012, 8, T_Sinc, T_Sinc_DRLR, 453.9, hit, 1, 0
1013, 8, T_Scon, T_Scon_URLR, 409.3, hit, 1, 0
1014, 8, T_Scon, T_Scon_URLR, 380.7, hit, 1, 0
1015, 8, T_Sinc, T_Sinc_DRLR, 392.2, hit, 1, 0
1016, 8, T_Scon, T_Scon_URLR, 323.6, hit, 1, 0
1017, 8, T_Sinc, T_Sinc_UGRG, 467.0, hit, 2, 0
1018, 8, T_Sinc, T_Sinc_DRLR, 386.4, hit, 1, 0
1019, 8, T_Scon, T_Scon_DGRG, 501.9, hit, 2, 0
1020, 8, T_Scon, T_Scon_DGRG, 353.3, hit, 2, 0
1021, 8, T_Scon, T_Scon_DGRG, 412.8, hit, 2, 0
1022, 8, T_Sinc, T_Sinc_UGRG, 440.2, hit, 2, 0
1023, 8, T_Sinc, T_Sinc_DRLR, 427.7, hit, 1, 0
1024, 8, T_Sinc, T_Sinc_DRLR, 503.1, hit, 1, 0
1025, 8, T_Sinc, T_Sinc_DRLR, 426.5, hit, 1, 0
1026, 8, T_Scon, T_Scon_DGRG, 509.9, hit, 2, 0
1027, 8, T_Scon, T_Scon_DGRG, 317.4, hit, 2, 0
1028, 8, T_Sinc, T_Sinc_DRLR, 404.8, hit, 1, 0
1029, 8, T_Scon, T_Scon_URLR, 744.3, hit, 1, 0
1030, 8, T_Scon, T_Scon_URLR, 359.7, hit, 1, 0
1031, 8, T_Scon, T_Scon_DGRG, 467.2, hit, 2, 0
1032, 8, T_Sinc, T_Sinc_UGRG, 414.6, hit, 2, 0
1033, 8, T_Sinc, T_Sinc_UGRG, 290.0, hit, 2, 0
1034, 8, T_Sinc, T_Sinc_UGRG, 297.5, hit, 2, 0
1035, 8, T_Scon, T_Scon_URLR, 508.9, hit, 1, 0
1036, 8, T_Sinc, T_Sinc_DRLR, 488.4, hit, 1, 0
1037, 8, T_Sinc, T_Sinc_UGRG, 287.8, hit, 2, 0
1038, 8, T_Sinc, T_Sinc_UGRG, 347.2, hit, 2, 0
1039, 8, T_Sinc, T_Sinc_UGRG, 354.6, hit, 2, 0
1040, 8, T_Sinc, T_Sinc_UGRG, 290.1, hit, 2, 0
1041, 8, T_Sinc, T_Sinc_UGRG, 317.5, hit, 2, 0
1042, 8, T_Sinc, T_Sinc_UGRG, 325.0, hit, 2, 0
1043, 8, T_Sinc, T_Sinc_UGRG, 368.4, hit, 2, 0
1044, 8, T_Sinc, T_Sinc_DRLR, 447.9, hit, 1, 0
1045, 8, T_Sinc, T_Sinc_UGRG, 499.1, hit, 2, 0
1046, 8, T_Sinc, T_Sinc_DRLR, 374.4, hit, 1, 0
1047, 8, T_Scon, T_Scon_URLR, 369.9, hit, 1, 0
1048, 8, T_Scon, T_Scon_DGRG, 485.3, hit, 2, 0
1049, 8, T_Sinc, T_Sinc_DRLR, 432.8, hit, 1, 0
1050, 8, T_Sinc, T_Sinc_UGRG, 440.1, hit, 2, 0
1051, 8, T_Scon, T_Scon_DGRG, 467.6, hit, 2, 0
1052, 8, T_Sinc, T_Sinc_DRLR, 479.0, hit, 1, 0
1053, 8, T_Sinc, T_Sinc_UGRG, 466.5, hit, 2, 0
1054, 8, T_Sinc, T_Sinc_DRLR, 385.9, hit, 1, 0
1055, 8, T_Sinc, T_Sinc_UGRG, 449.4, hit, 2, 0
1056, 8, T_Sinc, T_Sinc_UGRG, 360.8, hit, 2, 0
1057, 8, T_Sinc, T_Sinc_UGRG, 484.3, hit, 2, 0
1058, 8, T_Sinc, T_Sinc_UGRG, 399.7, hit, 2, 0
1059, 8, T_Sinc, T_Sinc_DRLR, 647.1, hit, 1, 0
1060, 8, T_Sinc, T_Sinc_UGRG, 538.6, hit, 2, 0
1061, 8, T_Sinc, T_Sinc_DRLR, 482.1, hit, 1, 0
1062, 8, T_Sinc, T_Sinc_UGRG, 477.5, hit, 2, 0
1063, 8, T_Sinc, T_Sinc_DRLR, 400.8, hit, 1, 0
1064, 8, T_Sinc, T_Sinc_DRLR, 576.3, hit, 1, 0
1065, 8, T_Sinc, T_Sinc_DRLR, 427.7, hit, 1, 0
1066, 8, T_Sinc, T_Sinc_UGRG, 495.2, hit, 2, 0
1067, 8, T_Sinc, T_Sinc_UGRG, 614.6, hit, 2, 0
1068, 8, T_Sinc, T_Sinc_DRLR, 394.1, hit, 1, 0
1069, 8, T_Sinc, T_Sinc_UGRG, 413.5, hit, 2, 0
1070, 8, T_Sinc, T_Sinc_UGRG, 369.0, hit, 2, 0
1071, 8, T_Sinc, T_Sinc_DRLR, 508.4, hit, 1, 0
1072, 8, T_Sinc, T_Sinc_DRLR, 455.9, hit, 1, 0
1073, 8, T_Sinc, T_Sinc_DRLR, 331.3, hit, 1, 0
1074, 8, T_Scon, T_Scon_URLR, 366.7, hit, 1, 0
1075, 8, T_Sinc, T_Sinc_UGRG, 402.1, hit, 2, 0
1076, 8, T_Sinc, T_Sinc_UGRG, 421.6, hit, 2, 0
1077, 8, T_Sinc, T_Sinc_UGRG, 353.0, hit, 2, 0
1078, 8, T_Scon, T_Scon_DGRG, 336.5, hit, 2, 0
1079, 8, T_Scon, T_Scon_URLR, 379.9, hit, 1, 0
1080, 8, T_Sinc, T_Sinc_DRLR, 391.3, hit, 1, 0
1081, 8, T_Sinc, T_Sinc_UGRG, 414.5, hit, 2, 0
1082, 8, T_Sinc, T_Sinc_UGRG, 305.9, hit, 2, 0
1083, 8, T_Sinc, T_Sinc_DRLR, 461.4, hit, 1, 0
1084, 8, T_Sinc, T_Sinc_DRLR, 324.8, hit, 1, 0
1085, 8, T_Scon, T_Scon_URLR, 368.2, hit, 1, 0
1086, 8, T_Scon, T_Scon_DGRG, 431.7, hit, 2, 0
1087, 8, T_Scon, T_Scon_DGRG, 395.2, hit, 2, 0
1088, 8, T_Sinc, T_Sinc_DRLR, 362.6, hit, 1, 0
1089, 8, T_Sinc, T_Sinc_UGRG, 358.1, hit, 2, 0
1090, 8, T_Sinc, T_Sinc_UGRG, 381.4, hit, 2, 0
1091, 8, T_Sinc, T_Sinc_UGRG, 520.8, hit, 2, 0
1092, 8, T_Sinc, T_Sinc_UGRG, 304.3, hit, 2, 0
1093, 8, T_Sinc, T_Sinc_DRLR, 463.7, hit, 1, 0
1094, 8, T_Sinc, T_Sinc_UGRG, 379.2, hit, 2, 0
1095, 8, T_Sinc, T_Sinc_UGRG, 862.6, hit, 2, 2
1096, 8, T_Sinc, T_Sinc_DRLR, 574.1, hit, 1, 0
1097, 8, T_Sinc, T_Sinc_DRLR, 345.5, hit, 1, 0
1098, 8, T_Sinc, T_Sinc_DRLR, 313.0, hit, 1, 0
1099, 8, T_Sinc, T_Sinc_UGRG, 456.4, hit, 2, 0
1100, 8, T_Sinc, T_Sinc_DRLR, 547.8, hit, 1, 0
1101, 8, T_Scon, T_Scon_DGRG, 431.2, hit, 2, 0
1102, 8, T_Sinc, T_Sinc_UGRG, 466.7, hit, 2, 0
1103, 8, T_Sinc, T_Sinc_DRLR, 454.1, hit, 1, 0
1104, 8, T_Sinc, T_Sinc_DRLR, 541.6, hit, 1, 0
1105, 8, T_Sinc, T_Sinc_DRLR, 377.0, hit, 1, 0
1106, 8, T_Scon, T_Scon_URLR, 444.4, hit, 1, 0
1107, 8, T_Scon, T_Scon_DGRG, 411.9, hit, 2, 0
1108, 8, T_Scon, T_Scon_URLR, 371.4, hit, 1, 0
1109, 8, T_Sinc, T_Sinc_UGRG, 478.8, hit, 2, 0
1110, 8, T_Sinc, T_Sinc_DRLR, 458.2, hit, 1, 0
1111, 8, T_Sinc, T_Sinc_DRLR, 345.6, hit, 1, 0
1112, 8, T_Sinc, T_Sinc_DRLR, 477.0, hit, 1, 0
1113, 8, T_Sinc, T_Sinc_DRLR, 524.5, hit, 1, 0
1114, 8, T_Sinc, T_Sinc_DRLR, 247.9, hit, 1, 0
1115, 8, T_Scon, T_Scon_URLR, 315.4, hit, 1, 0
1116, 8, T_Sinc, T_Sinc_UGRG, 510.8, hit, 2, 0
1117, 8, T_Sinc, T_Sinc_DRLR, 426.1, hit, 1, 0
1118, 8, T_Scon, T_Scon_URLR, 481.4, hit, 1, 0
1119, 8, T_Sinc, T_Sinc_UGRG, 416.9, hit, 2, 0
1120, 8, T_Sinc, T_Sinc_UGRG, 396.3, hit, 2, 0
1121, 8, T_Sinc, T_Sinc_UGRG, 343.7, hit, 2, 0
1122, 8, T_Sinc, T_Sinc_DRLR, 443.2, hit, 1, 0
1123, 8, T_Sinc, T_Sinc_UGRG, 366.6, hit, 2, 0
1124, 8, T_Sinc, T_Sinc_UGRG, 418.1, hit, 2, 0
1125, 8, T_Sinc, T_Sinc_DRLR, 397.5, hit, 1, 0
1126, 8, T_Scon, T_Scon_DGRG, 481.0, hit, 2, 0
1127, 8, T_Sinc, T_Sinc_DRLR, 516.4, hit, 1, 0
1128, 8, T_Sinc, T_Sinc_UGRG, 431.9, hit, 2, 0
1129, 8, T_Scon, T_Scon_DGRG, 519.2, hit, 2, 0
1130, 8, T_Sinc, T_Sinc_DRLR, 602.7, hit, 1, 0
1131, 8, T_Sinc, T_Sinc_DRLR, 366.1, hit, 1, 0
1132, 8, T_Sinc, T_Sinc_DRLR, 321.6, hit, 1, 0
1133, 8, T_Sinc, T_Sinc_UGRG, 389.0, hit, 2, 0
1134, 8, T_Scon, T_Scon_DGRG, 284.5, hit, 2, 0
1135, 8, T_Sinc, T_Sinc_UGRG, 343.9, hit, 2, 0
1136, 8, T_Sinc, T_Sinc_UGRG, 371.3, hit, 2, 0
1137, 8, T_Sinc, T_Sinc_DRLR, 438.8, hit, 1, 0
1138, 8, T_Sinc, T_Sinc_DRLR, 370.2, hit, 1, 0
1139, 8, T_Sinc, T_Sinc_DRLR, 401.7, hit, 1, 0
1140, 8, T_Sinc, T_Sinc_DRLR, 329.0, hit, 1, 0
1141, 8, T_Sinc, T_Sinc_DRLR, 328.5, hit, 1, 0
1142, 8, T_Sinc, T_Sinc_UGRG, 523.9, hit, 2, 0
1143, 8, T_Scon, T_Scon_DGRG, 459.4, hit, 2, 0
1144, 8, T_Sinc, T_Sinc_UGRG, 378.8, hit, 2, 0
1145, 8, T_Scon, T_Scon_DGRG, 258.3, hit, 2, 0
1146, 8, T_Sinc, T_Sinc_DRLR, 429.7, hit, 1, 0
1147, 8, T_Scon, T_Scon_URLR, 537.2, hit, 1, 0
1148, 8, T_Sinc, T_Sinc_UGRG, 364.6, incorrect, 1, 1
1149, 8, T_Scon, T_Scon_URLR, 664.1, hit, 1, 0
1150, 8, T_Sinc, T_Sinc_DRLR, 423.5, hit, 1, 0
1151, 8, T_Sinc, T_Sinc_UGRG, 402.9, hit, 2, 0
1152, 8, T_Sinc, T_Sinc_DRLR, 846.3, hit, 1, 2
1153, 9, T_Scon, T_Scon_URLR, 427.8, hit, 1, 0
1154, 9, T_Sinc, T_Sinc_UGRG, 407.3, hit, 2, 0
1155, 9, T_Sinc, T_Sinc_UGRG, 350.7, hit, 2, 0
1156, 9, T_Scon, T_Scon_DGRG, 350.2, hit, 2, 0
1157, 9, T_Scon, T_Scon_URLR, 365.6, hit, 1, 0
1158, 9, T_Scon, T_Scon_URLR, 353.0, hit, 1, 0
1159, 9, T_Sinc, T_Sinc_DRLR, 636.5, hit, 1, 0
1160, 9, T_Sinc, T_Sinc_DRLR, 339.9, hit, 1, 0
1161, 9, T_Scon, T_Scon_DGRG, 367.4, hit, 2, 0
1162, 9, T_Scon, T_Scon_DGRG, 314.8, hit, 2, 0
1163, 9, T_Sinc, T_Sinc_UGRG, 450.3, hit, 2, 0
1164, 9, T_Sinc, T_Sinc_DRLR, 405.6, hit, 1, 0
1165, 9, T_Sinc, T_Sinc_DRLR, 329.1, hit, 1, 0
1166, 9, T_Sinc, T_Sinc_UGRG, 420.5, hit, 2, 0
1167, 9, T_Scon, T_Scon_URLR, 408.0, hit, 1, 0
1168, 9, T_Scon, T_Scon_URLR, 291.4, hit, 1, 0
1169, 9, T_Sinc, T_Sinc_UGRG, 366.9, hit, 2, 0
1170, 9, T_Sinc, T_Sinc_DRLR, 362.3, hit, 1, 0
1171, 9, T_Sinc, T_Sinc_DRLR, 389.8, hit, 1, 0
1172, 9, T_Sinc, T_Sinc_DRLR, 265.2, hit, 1, 0
1173, 9, T_Scon, T_Scon_URLR, 348.6, hit, 1, 0
1174, 9, T_Sinc, T_Sinc_DRLR, 328.1, hit, 1, 0
1175, 9, T_Sinc, T_Sinc_DRLR, 351.4, hit, 1, 0
1176, 9, T_Sinc, T_Sinc_UGRG, 414.9, hit, 2, 0
1177, 9, T_Sinc, T_Sinc_UGRG, 378.3, hit, 2, 0
1178, 9, T_Sinc, T_Sinc_UGRG, 385.8, hit, 2, 0
1179, 9, T_Scon, T_Scon_DGRG, 333.2, hit, 2, 0
1180, 9, T_Scon, T_Scon_URLR, 368.7, hit, 1, 0
1181, 9, T_Sinc, T_Sinc_UGRG, 652.1, hit, 2, 0
1182, 9, T_Sinc, T_Sinc_DRLR, 391.6, hit, 1, 0
1183, 9, T_Sinc, T_Sinc_UGRG, 387.0, hit, 2, 0
1184, 9, T_Sinc, T_Sinc_UGRG, 366.4, hit, 2, 0
1185, 9, T_Sinc, T_Sinc_DRLR, 401.8, hit, 1, 0
1186, 9, T_Sinc, T_Sinc_UGRG, 437.3, hit, 2, 0
1187, 9, T_Sinc, T_Sinc_UGRG, 364.7, hit, 2, 0
1188, 9, T_Sinc, T_Sinc_DRLR, 388.2, hit, 1, 0
1189, 9, T_Sinc, T_Sinc_UGRG, 459.4, hit, 2, 0
1190, 9, T_Sinc, T_Sinc_DRLR, 462.8, hit, 1, 0
1191, 9, T_Sinc, T_Sinc_DRLR, 342.2, hit, 1, 0
1192, 9, T_Sinc, T_Sinc_UGRG, 657.6, hit, 2, 0
1193, 9, T_Scon, T_Scon_DGRG, 325.1, hit, 2, 0
1194, 9, T_Scon, T_Scon_DGRG, 332.5, hit, 2, 0
1195, 9, T_Sinc, T_Sinc_DRLR, 520.0, hit, 1, 0
1196, 9, T_Sinc, T_Sinc_UGRG, 463.4, hit, 2, 0
1197, 9, T_Sinc, T_Sinc_DRLR, 762.8, hit, 1, 2
1198, 9, T_Sinc, T_Sinc_DRLR, 274.3, hit, 1, 0
1199, 9, T_Sinc, T_Sinc_UGRG, 633.8, hit, 2, 0
1200, 9, T_Sinc, T_Sinc_DRLR, 497.1, hit, 1, 0
1201, 9, T_Sinc, T_Sinc_DRLR, 492.6, hit, 1, 0
1202, 9, T_Scon, T_Scon_DGRG, 416.0, hit, 2, 0
1203, 9, T_Scon, T_Scon_URLR, 379.4, hit, 1, 0
1204, 9, T_Scon, T_Scon_URLR, 366.9, hit, 1, 0
1205, 9, T_Sinc, T_Sinc_UGRG, 506.3, hit, 2, 0
1206, 9, T_Sinc, T_Sinc_UGRG, 901.8, hit, 2, 2
1207, 9, T_Sinc, T_Sinc_DRLR, 357.2, hit, 1, 0
1208, 9, T_Sinc, T_Sinc_UGRG, 592.7, hit, 2, 0
1209, 9, T_Sinc, T_Sinc_DRLR, 368.1, hit, 1, 0
1210, 9, T_Sinc, T_Sinc_UGRG, 407.6, hit, 2, 0
1211, 9, T_Sinc, T_Sinc_UGRG, 587.0, hit, 2, 0
1212, 9, T_Sinc, T_Sinc_DRLR, 470.5, hit, 1, 0
1213, 9, T_Sinc, T_Sinc_UGRG, 613.8, hit, 2, 0
1214, 9, T_Sinc, T_Sinc_DRLR, 437.3, hit, 1, 0
1215, 9, T_Sinc, T_Sinc_DRLR, 472.7, hit, 1, 0
1216, 9, T_Sinc, T_Sinc_UGRG, 552.2, hit, 2, 0
1217, 9, T_Sinc, T_Sinc_UGRG, 491.6, hit, 2, 0
1218, 9, T_Sinc, T_Sinc_DRLR, 459.1, hit, 1, 0
1219, 9, T_Scon, T_Scon_DGRG, 582.5, hit, 2, 0
1220, 9, T_Scon, T_Scon_DGRG, 426.0, hit, 2, 0
1221, 9, T_Sinc, T_Sinc_UGRG, 457.4, hit, 2, 0
1222, 9, T_Scon, T_Scon_DGRG, 332.8, hit, 2, 0
1223, 9, T_Sinc, T_Sinc_UGRG, 328.2, hit, 2, 0
1224, 9, T_Scon, T_Scon_URLR, 419.6, hit, 1, 0
1225, 9, T_Sinc, T_Sinc_DRLR, 790.9, hit, 1, 2
1226, 9, T_Sinc, T_Sinc_DRLR, 322.4, hit, 1, 0
1227, 9, T_Sinc, T_Sinc_UGRG, 393.7, hit, 2, 0
1228, 9, T_Sinc, T_Sinc_DRLR, 405.1, hit, 1, 0
1229, 9, T_Scon, T_Scon_DGRG, 332.6, hit, 2, 0
1230, 9, T_Sinc, T_Sinc_DRLR, 368.0, hit, 1, 0
1231, 9, T_Sinc, T_Sinc_UGRG, 427.5, hit, 2, 0
1232, 9, T_Scon, T_Scon_DGRG, 670.9, hit, 2, 0
1233, 9, T_Scon, T_Scon_URLR, 530.4, hit, 1, 0
1234, 9, T_Scon, T_Scon_URLR, 301.8, hit, 1, 0
1235, 9, T_Sinc, T_Sinc_UGRG, 481.2, hit, 2, 0
1236, 9, T_Sinc, T_Sinc_UGRG, 340.6, hit, 2, 0
1237, 9, T_Scon, T_Scon_URLR, 392.1, hit, 1, 0
1238, 9, T_Scon, T_Scon_DGRG, 519.5, hit, 2, 0
1239, 9, T_Sinc, T_Sinc_DRLR, 507.0, hit, 1, 0
1240, 9, T_Sinc, T_Sinc_DRLR, 390.4, hit, 1, 0
1241, 9, T_Sinc, T_Sinc_DRLR, 289.8, hit, 1, 0
1242, 9, T_Sinc, T_Sinc_UGRG, 517.3, hit, 2, 0
1243, 9, T_Sinc, T_Sinc_DRLR, 536.7, hit, 1, 0
1244, 9, T_Sinc, T_Sinc_DRLR, 356.2, hit, 1, 0
1245, 9, T_Sinc, T_Sinc_DRLR, 303.6, hit, 1, 0
1246, 9, T_Sinc, T_Sinc_DRLR, 267.1, hit, 1, 0
1247, 9, T_Scon, T_Scon_DGRG, 622.4, hit, 2, 0
1248, 9, T_Scon, T_Scon_URLR, 393.9, hit, 1, 0
1249, 9, T_Sinc, T_Sinc_DRLR, 381.3, hit, 1, 0
1250, 9, T_Sinc, T_Sinc_UGRG, 456.8, hit, 2, 0
1251, 9, T_Sinc, T_Sinc_DRLR, 500.2, hit, 1, 0
1252, 9, T_Sinc, T_Sinc_DRLR, 423.6, hit, 1, 0
1253, 9, T_Sinc, T_Sinc_DRLR, 347.1, hit, 1, 0
1254, 9, T_Sinc, T_Sinc_DRLR, 378.5, hit, 1, 0
1255, 9, T_Sinc, T_Sinc_DRLR, 278.0, hit, 1, 0
1256, 9, T_Sinc, T_Sinc_UGRG, 441.4, hit, 2, 0
1257, 9, T_Sinc, T_Sinc_DRLR, 352.9, hit, 1, 0
1258, 9, T_Sinc, T_Sinc_DRLR, 468.2, hit, 1, 0
1259, 9, T_Sinc, T_Sinc_DRLR, 339.7, hit, 1, 0
1260, 9, T_Sinc, T_Sinc_UGRG, 415.1, hit, 2, 0
1261, 9, T_Sinc, T_Sinc_UGRG, 570.4, hit, 2, 0
1262, 9, T_Scon, T_Scon_DGRG, 321.8, hit, 2, 0
1263, 9, T_Scon, T_Scon_DGRG, 309.1, hit, 2, 0
1264, 9, T_Scon, T_Scon_URLR, 344.6, hit, 1, 0
1265, 9, T_Sinc, T_Sinc_UGRG, 532.0, hit, 2, 0
1266, 9, T_Scon, T_Scon_DGRG, 311.5, hit, 2, 0
1267, 9, T_Sinc, T_Sinc_UGRG, 358.9, hit, 2, 0
1268, 9, T_Sinc, T_Sinc_UGRG, 326.4, hit, 2, 0
1269, 9, T_Sinc, T_Sinc_DRLR, 377.8, hit, 1, 0
1270, 9, T_Sinc, T_Sinc_DRLR, 701.3, hit, 1, 0
1271, 9, T_Sinc, T_Sinc_UGRG, 396.7, hit, 2, 0
1272, 9, T_Scon, T_Scon_URLR, 336.2, hit, 1, 0
1273, 9, T_Sinc, T_Sinc_UGRG, 635.6, hit, 2, 0
1274, 9, T_Sinc, T_Sinc_UGRG, 351.0, hit, 2, 0
1275, 9, T_Sinc, T_Sinc_UGRG, 330.4, hit, 2, 0
1276, 9, T_Sinc, T_Sinc_UGRG, 297.9, hit, 2, 0
1277, 9, T_Scon, T_Scon_URLR, 377.3, hit, 1, 0
1278, 9, T_Sinc, T_Sinc_UGRG, 504.7, hit, 2, 0
1279, 9, T_Sinc, T_Sinc_DRLR, 376.2, hit, 1, 0
1280, 9, T_Sinc, T_Sinc_UGRG, 1123.6, hit, 2, 2
1281, 9, T_Sinc, T_Sinc_UGRG, 331.1, hit, 2, 0
1282, 9, T_Sinc, T_Sinc_DRLR, 362.5, hit, 1, 0
1283, 9, T_Sinc, T_Sinc_DRLR, 365.9, hit, 1, 0
1284, 9, T_Sinc, T_Sinc_DRLR, 453.3, hit, 1, 0
1285, 9, T_Sinc, T_Sinc_UGRG, 420.8, hit, 2, 0
1286, 9, T_Sinc, T_Sinc_DRLR, 352.2, hit, 1, 0
1287, 9, T_Sinc, T_Sinc_UGRG, 619.7, hit, 2, 0
1288, 9, T_Sinc, T_Sinc_DRLR, 399.1, hit, 1, 0
1289, 9, T_Scon, T_Scon_DGRG, 602.6, hit, 2, 0
1290, 9, T_Sinc, T_Sinc_UGRG, 506.0, hit, 2, 0
1291, 9, T_Scon, T_Scon_URLR, 613.5, hit, 1, 0
1292, 9, T_Sinc, T_Sinc_DRLR, 560.8, hit, 1, 0
1293, 9, T_Sinc, T_Sinc_UGRG, 440.3, hit, 2, 0
1294, 9, T_Sinc, T_Sinc_UGRG, 371.7, hit, 2, 0
1295, 9, T_Sinc, T_Sinc_UGRG, 367.2, hit, 2, 0
1296, 9, T_Sinc, T_Sinc_UGRG, 334.6, hit, 2, 0
