trial_index, block, condition, full_condition_code, RT, response_type, response_key, error_outlier
1, 1, T_Sinc, T_Sinc_DRLR, 478.8, hit, 1, 0
2, 1, T_Sinc, T_Sinc_UGRG, 422.2, hit, 2, 0
3, 1, T_Sinc, T_Sinc_UGRG, 445.6, hit, 2, 0
4, 1, T_Sinc, T_Sinc_UGRG, 401.0, hit, 2, 0
5, 1, T_Sinc, T_Sinc_DRLR, 372.5, hit, 1, 0
6, 1, T_Sinc, T_Sinc_DRLR, 631.9, hit, 1, 0
7, 1, T_Sinc, T_Sinc_UGRG, 291.4, hit, 2, 0
8, 1, T_Scon, T_Scon_DGRG, 562.8, hit, 2, 0
9, 1, T_Scon, T_Scon_URLR, 430.3, hit, 1, 0
10, 1, T_Sinc, T_Sinc_DRLR, 329.7, hit, 1, 0
11, 1, T_Sinc, T_Sinc_UGRG, 533.1, hit, 2, 0
12, 1, T_Sinc, T_Sinc_UGRG, 432.6, hit, 2, 0
13, 1, T_Sinc, T_Sinc_DRLR, 579.9, hit, 1, 0
14, 1, T_Sinc, T_Sinc_UGRG, 603.4, hit, 2, 0
15, 1, T_Sinc, T_Sinc_DRLR, 674.8, hit, 1, 0
16, 1, T_Sinc, T_Sinc_DRLR, 394.3, hit, 1, 0
17, 1, T_Scon, T_Scon_DGRG, 417.8, hit, 2, 0
18, 1, T_Scon, T_Scon_URLR, 329.1, hit, 1, 0
19, 1, T_Sinc, T_Sinc_DRLR, 356.6, hit, 1, 0
20, 1, T_Sinc, T_Sinc_UGRG, 476.0, hit, 2, 0
21, 1, T_Sinc, T_Sinc_UGRG, 375.5, hit, 2, 0
22, 1, T_Scon, T_Scon_URLR, 434.9, hit, 1, 0
23, 1, T_Sinc, T_Sinc_UGRG, 402.3, hit, 2, 0
24, 1, T_Sinc, T_Sinc_UGRG, 429.7, hit, 2, 0
25, 1, T_Sinc, T_Sinc_UGRG, 369.2, hit, 2, 0
26, 1, T_Scon, T_Scon_URLR, 352.7, hit, 1, 0
27, 1, T_Sinc, T_Sinc_DRLR, 364.1, hit, 1, 0
28, 1, T_Sinc, T_Sinc_DRLR, 311.6, hit, 1, 0
29, 1, T_Sinc, T_Sinc_DRLR, 394.9, hit, 1, 0
30, 1, T_Sinc, T_Sinc_DRLR, 298.4, hit, 1, 0
31, 1, T_Sinc, T_Sinc_DRLR, 245.8, hit, 1, 0
32, 1, T_Sinc, T_Sinc_UGRG, 281.3, hit, 2, 0
33, 1, T_Sinc, T_Sinc_UGRG, 264.7, hit, 2, 0
34, 1, T_Scon, T_Scon_DGRG, 348.1, hit, 2, 0
35, 1, T_Sinc, T_Sinc_UGRG, 375.6, hit, 2, 0
36, 1, T_Sinc, T_Sinc_UGRG, 495.0, hit, 2, 0
37, 1, T_Scon, T_Scon_URLR, 786.2, hit, 1, 2
38, 1, T_Scon, T_Scon_URLR, 341.6, hit, 1, 0
39, 1, T_Sinc, T_Sinc_DRLR, 357.1, hit, 1, 0
40, 1, T_Sinc, T_Sinc_UGRG, 248.4, hit, 2, 0
41, 1, T_Sinc, T_Sinc_UGRG, 375.9, hit, 2, 0
42, 1, T_Scon, T_Scon_URLR, 551.4, hit, 1, 0
43, 1, T_Sinc, T_Sinc_UGRG, 378.8, hit, 2, 0
44, 1, T_Scon, T_Scon_DGRG, 422.3, hit, 2, 0
45, 1, T_Scon, T_Scon_DGRG, 321.6, hit, 2, 0
46, 1, T_Scon, T_Scon_DGRG, 365.1, hit, 2, 0
47, 1, T_Sinc, T_Sinc_UGRG, 272.5, hit, 2, 0
48, 1, T_Sinc, T_Sinc_UGRG, 380.0, hit, 2, 0
49, 1, T_Scon, T_Scon_URLR, 375.5, hit, 1, 0
50, 1, T_Sinc, T_Sinc_UGRG, 430.8, hit, 2, 0
51, 1, T_Sinc, T_Sinc_UGRG, 298.3, hit, 2, 0
52, 1, T_Sinc, T_Sinc_DRLR, 301.7, incorrect, 2, 1
53, 1, T_Sinc, T_Sinc_UGRG, 717.2, hit, 2, 2
54, 1, T_Sinc, T_Sinc_UGRG, 348.6, hit, 2, 0
55, 1, T_Scon, T_Scon_URLR, 276.0, hit, 1, 0
56, 1, T_Scon, T_Scon_URLR, 399.5, hit, 1, 0
57, 1, T_Sinc, T_Sinc_DRLR, 302.9, hit, 1, 0
58, 1, T_Sinc, T_Sinc_UGRG, 470.4, hit, 2, 0
59, 1, T_Sinc, T_Sinc_UGRG, 865.8, hit, 2, 2
60, 1, T_Scon, T_Scon_URLR, 473.2, hit, 1, 0
61, 1, T_Sinc, T_Sinc_DRLR, 916.7, hit, 1, 2
62, 1, T_Scon, T_Scon_DGRG, 444.1, hit, 2, 0
63, 1, T_Sinc, T_Sinc_DRLR, 623.6, hit, 1, 0
64, 1, T_Sinc, T_Sinc_DRLR, 318.9, hit, 1, 0
65, 1, T_Sinc, T_Sinc_DRLR, 330.4, hit, 1, 0
66, 1, T_Sinc, T_Sinc_UGRG, 473.8, hit, 2, 0
67, 1, T_Sinc, T_Sinc_UGRG, 445.3, hit, 2, 0
68, 1, T_Sinc, T_Sinc_UGRG, 408.7, hit, 2, 0
69, 1, T_Sinc, T_Sinc_DRLR, 336.2, hit, 1, 0
70, 1, T_Sinc, T_Sinc_DRLR, 347.7, hit, 1, 0
71, 1, T_Sinc, T_Sinc_DRLR, 315.0, hit, 1, 0
72, 1, T_Scon, T_Scon_DGRG, 334.5, hit, 2, 0
73, 1, T_Sinc, T_Sinc_DRLR, 537.6, hit, 1, 0
74, 1, T_Sinc, T_Sinc_DRLR, 285.1, hit, 1, 0
75, 1, T_Sinc, T_Sinc_DRLR, 312.5, hit, 1, 0
76, 1, T_Sinc, T_Sinc_DRLR, 364.0, hit, 1, 0
77, 1, T_Sinc, T_Sinc_DRLR, 319.3, hit, 1, 0
78, 1, T_Scon, T_Scon_DGRG, 386.8, hit, 2, 0
79, 1, T_Sinc, T_Sinc_DRLR, 398.3, hit, 1, 0
80, 1, T_Sinc, T_Sinc_UGRG, 497.7, hit, 2, 0
81, 1, T_Sinc, T_Sinc_UGRG, 389.2, hit, 2, 0
82, 1, T_Scon, T_Scon_URLR, 400.6, hit, 1, 0
83, 1, T_Scon, T_Scon_URLR, 332.0, hit, 1, 0
84, 1, T_Sinc, T_Sinc_UGRG, 287.4, hit, 2, 0
85, 1, T_Sinc, T_Sinc_UGRG, 306.9, hit, 2, 0
86, 1, T_Sinc, T_Sinc_DRLR, 278.4, hit, 1, 0
87, 1, T_Sinc, T_Sinc_DRLR, 505.7, hit, 1, 0
88, 1, T_Sinc, T_Sinc_DRLR, 285.2, hit, 1, 0
89, 1, T_Sinc, T_Sinc_DRLR, 296.6, hit, 1, 0
90, 1, T_Sinc, T_Sinc_UGRG, 364.1, hit, 2, 0
91, 1, T_Sinc, T_Sinc_DRLR, 331.5, hit, 1, 0
92, 1, T_Sinc, T_Sinc_DRLR, 302.9, hit, 1, 0
93, 1, T_Sinc, T_Sinc_DRLR, 322.4, hit, 1, 0
94, 1, T_Scon, T_Scon_DGRG, 397.8, hit, 2, 0
95, 1, T_Sinc, T_Sinc_DRLR, 325.3, hit, 1, 0
96, 1, T_Sinc, T_Sinc_UGRG, 356.7, incorrect, 1, 1
97, 1, T_Sinc, T_Sinc_DRLR, 388.1, hit, 1, 0
98, 1, T_Scon, T_Scon_DGRG, 535.5, hit, 2, 0
99, 1, T_Sinc, T_Sinc_UGRG, 867.0, hit, 2, 2
100, 1, T_Sinc, T_Sinc_DRLR, 402.4, hit, 1, 0
101, 1, T_Sinc, T_Sinc_DRLR, 393.9, hit, 1, 0
102, 1, T_Scon, T_Scon_DGRG, 513.4, hit, 2, 0
103, 1, T_Sinc, T_Sinc_DRLR, 420.7, hit, 1, 0
104, 1, T_Sinc, T_Sinc_DRLR, 352.2, hit, 1, 0
105, 1, T_Scon, T_Scon_DGRG, 427.6, hit, 2, 0
106, 1, T_Sinc, T_Sinc_DRLR, 791.1, hit, 1, 2
107, 1, T_Scon, T_Scon_DGRG, 354.6, hit, 2, 0
108, 1, T_Sinc, T_Sinc_UGRG, 793.9, hit, 2, 2
109, 1, T_Sinc, T_Sinc_UGRG, 473.2, hit, 2, 0
110, 1, T_Sinc, T_Sinc_DRLR, 328.5, hit, 1, 0
111, 1, T_Sinc, T_Sinc_UGRG, 564.0, hit, 2, 0
112, 1, T_Sinc, T_Sinc_DRLR, 287.4, hit, 1, 0
113, 1, T_Sinc, T_Sinc_DRLR, 330.9, hit, 1, 0
114, 1, T_Sinc, T_Sinc_UGRG, 302.3, hit, 2, 0
115, 1, T_Sinc, T_Sinc_DRLR, 385.7, hit, 1, 0
116, 1, T_Sinc, T_Sinc_UGRG, 445.2, hit, 2, 0
117, 1, T_Sinc, T_Sinc_DRLR, 312.6, hit, 1, 0
118, 1, T_Sinc, T_Sinc_UGRG, 460.1, hit, 2, 0
119, 1, T_Sinc, T_Sinc_UGRG, 447.4, hit, 2, 0
120, 1, T_Scon, T_Scon_DGRG, 490.9, hit, 2, 0
121, 1, T_Sinc, T_Sinc_UGRG, 438.4, hit, 2, 0
122, 1, T_Sinc, T_Sinc_UGRG, 405.8, hit, 2, 0
123, 1, T_Scon, T_Scon_DGRG, 413.3, hit, 2, 0
124, 1, T_Sinc, T_Sinc_UGRG, 392.6, hit, 2, 0
125, 1, T_Scon, T_Scon_DGRG, 396.1, hit, 2, 0
126, 1, T_Sinc, T_Sinc_UGRG, 327.5, hit, 2, 0
127, 1, T_Sinc, T_Sinc_UGRG, 299.0, hit, 2, 0
128, 1, T_Sinc, T_Sinc_UGRG, 318.4, hit, 2, 0
129, 1, T_Sinc, T_Sinc_DRLR, 257.8, hit, 1, 0
130, 1, T_Scon, T_Scon_URLR, 269.3, hit, 1, 0
131, 1, T_Scon, T_Scon_URLR, 336.7, hit, 1, 0
132, 1, T_Sinc, T_Sinc_DRLR, 324.2, hit, 1, 0
133, 1, T_Scon, T_Scon_DGRG, 303.6, hit, 2, 0
134, 1, T_Scon, T_Scon_URLR, 415.0, incorrect, 2, 1
135, 1, T_Scon, T_Scon_URLR, 606.4, hit, 1, 0
136, 1, T_Sinc, T_Sinc_DRLR, 345.9, hit, 1, 0
137, 1, T_Sinc, T_Sinc_DRLR, 333.4, hit, 1, 0
138, 1, T_Scon, T_Scon_URLR, 320.8, hit, 1, 0
139, 1, T_Sinc, T_Sinc_UGRG, 404.3, hit, 2, 0
140, 1, T_Sinc, T_Sinc_DRLR, 399.6, hit, 1, 0
141, 1, T_Sinc, T_Sinc_UGRG, 463.1, hit, 2, 0
142, 1, T_Sinc, T_Sinc_UGRG, 414.5, hit, 2, 0
143, 1, T_Sinc, T_Sinc_DRLR, 446.0, hit, 1, 0
144, 1, T_Sinc, T_Sinc_UGRG, 397.4, hit, 2, 0
145, 2, T_Sinc, T_Sinc_UGRG, 393.4, hit, 2, 0
146, 2, T_Scon, T_Scon_DGRG, 372.7, hit, 2, 0
147, 2, T_Sinc, T_Sinc_UGRG, 256.2, hit, 2, 0
148, 2, T_Scon, T_Scon_URLR, 359.7, hit, 1, 0
149, 2, T_Sinc, T_Sinc_DRLR, 315.0, hit, 1, 0
150, 2, T_Sinc, T_Sinc_UGRG, 270.5, hit, 2, 0
151, 2, T_Sinc, T_Sinc_UGRG, 345.9, hit, 2, 0
152, 2, T_Sinc, T_Sinc_DRLR, 389.4, hit, 1, 0
153, 2, T_Scon, T_Scon_DGRG, 572.7, hit, 2, 0
154, 2, T_Scon, T_Scon_URLR, 448.3, hit, 1, 0
155, 2, T_Sinc, T_Sinc_UGRG, 427.7, incorrect, 1, 1
156, 2, T_Sinc, T_Sinc_UGRG, 423.1, hit, 2, 0
157, 2, T_Scon, T_Scon_DGRG, 506.6, hit, 2, 0
158, 2, T_Sinc, T_Sinc_UGRG, 310.0, hit, 2, 0
159, 2, T_Sinc, T_Sinc_DRLR, 361.4, hit, 1, 0
160, 2, T_Sinc, T_Sinc_UGRG, 464.8, hit, 2, 0
161, 2, T_Sinc, T_Sinc_DRLR, 500.3, hit, 1, 0
162, 2, T_Sinc, T_Sinc_DRLR, 359.8, hit, 1, 0
163, 2, T_Scon, T_Scon_URLR, 299.2, hit, 1, 0
164, 2, T_Sinc, T_Sinc_DRLR, 334.7, hit, 1, 0
165, 2, T_Sinc, T_Sinc_DRLR, 354.0, hit, 1, 0
166, 2, T_Scon, T_Scon_URLR, 373.5, hit, 1, 0
167, 2, T_Sinc, T_Sinc_DRLR, 412.9, hit, 1, 0
168, 2, T_Sinc, T_Sinc_DRLR, 320.4, hit, 1, 0
169, 2, T_Scon, T_Scon_URLR, 291.8, hit, 1, 0
170, 2, T_Sinc, T_Sinc_UGRG, 327.2, hit, 2, 0
171, 2, T_Sinc, T_Sinc_UGRG, 426.8, hit, 2, 0
172, 2, T_Sinc, T_Sinc_DRLR, 482.1, hit, 1, 0
173, 2, T_Sinc, T_Sinc_UGRG, 581.6, hit, 2, 0
174, 2, T_Sinc, T_Sinc_DRLR, 457.0, hit, 1, 0
175, 2, T_Sinc, T_Sinc_DRLR, 444.4, hit, 1, 0
176, 2, T_Sinc, T_Sinc_DRLR, 327.8, hit, 1, 0
177, 2, T_Sinc, T_Sinc_UGRG, 347.3, hit, 2, 0
178, 2, T_Sinc, T_Sinc_UGRG, 438.7, hit, 2, 0
179, 2, T_Scon, T_Scon_DGRG, 422.2, hit, 2, 0
180, 2, T_Sinc, T_Sinc_UGRG, 329.5, hit, 2, 0
181, 2, T_Sinc, T_Sinc_DRLR, 488.8, incorrect, 2, 1
182, 2, T_Sinc, T_Sinc_DRLR, 328.2, hit, 1, 0
183, 2, T_Sinc, T_Sinc_DRLR, 359.6, hit, 1, 0
184, 2, T_Sinc, T_Sinc_UGRG, 459.1, hit, 2, 0
185, 2, T_Scon, T_Scon_URLR, 334.5, hit, 1, 0
186, 2, T_Sinc, T_Sinc_DRLR, 405.9, hit, 1, 0
187, 2, T_Sinc, T_Sinc_DRLR, 325.3, hit, 1, 0
188, 2, T_Sinc, T_Sinc_UGRG, 312.8, hit, 2, 0
189, 2, T_Scon, T_Scon_URLR, 396.2, hit, 1, 0
190, 2, T_Sinc, T_Sinc_UGRG, 411.7, hit, 2, 0
191, 2, T_Sinc, T_Sinc_DRLR, 399.1, hit, 1, 0
192, 2, T_Sinc, T_Sinc_UGRG, 454.5, hit, 2, 0
193, 2, T_Scon, T_Scon_DGRG, 621.9, incorrect, 1, 1
194, 2, T_Sinc, T_Sinc_DRLR, 305.4, hit, 1, 0
195, 2, T_Sinc, T_Sinc_DRLR, 340.9, hit, 1, 0
196, 2, T_Scon, T_Scon_URLR, 352.2, hit, 1, 0
197, 2, T_Scon, T_Scon_DGRG, 347.7, hit, 2, 0
198, 2, T_Sinc, T_Sinc_UGRG, 343.1, hit, 2, 0
199, 2, T_Sinc, T_Sinc_DRLR, 386.6, hit, 1, 0
200, 2, T_Sinc, T_Sinc_UGRG, 486.0, hit, 2, 0
201, 2, T_Sinc, T_Sinc_UGRG, 397.5, hit, 2, 0
202, 2, T_Scon, T_Scon_DGRG, 541.0, hit, 2, 0
203, 2, T_Sinc, T_Sinc_UGRG, 352.3, hit, 2, 0
204, 2, T_Sinc, T_Sinc_DRLR, 603.8, hit, 1, 0
205, 2, T_Sinc, T_Sinc_DRLR, 367.2, hit, 1, 0
206, 2, T_Scon, T_Scon_URLR, 370.7, hit, 1, 0
207, 2, T_Scon, T_Scon_URLR, 386.0, hit, 1, 0
208, 2, T_Scon, T_Scon_DGRG, 453.5, hit, 2, 0
209, 2, T_Sinc, T_Sinc_UGRG, 333.0, hit, 2, 0
210, 2, T_Sinc, T_Sinc_DRLR, 824.4, hit, 1, 2
211, 2, T_Sinc, T_Sinc_DRLR, 311.9, hit, 1, 0
212, 2, T_Sinc, T_Sinc_DRLR, 319.3, hit, 1, 0
213, 2, T_Sinc, T_Sinc_UGRG, 326.7, hit, 2, 0
214, 2, T_Sinc, T_Sinc_UGRG, 302.1, hit, 2, 0
215, 2, T_Sinc, T_Sinc_UGRG, 401.6, hit, 2, 0
216, 2, T_Sinc, T_Sinc_DRLR, 389.1, hit, 1, 0
217, 2, T_Sinc, T_Sinc_DRLR, 360.2, hit, 1, 0
218, 2, T_Sinc, T_Sinc_UGRG, 411.6, hit, 2, 0
219, 2, T_Sinc, T_Sinc_DRLR, 439.0, hit, 1, 0
220, 2, T_Sinc, T_Sinc_UGRG, 354.5, hit, 2, 0
221, 2, T_Scon, T_Scon_URLR, 453.9, hit, 1, 0
222, 2, T_Sinc, T_Sinc_UGRG, 397.4, hit, 2, 0
223, 2, T_Sinc, T_Sinc_UGRG, 708.8, hit, 2, 2
224, 2, T_Sinc, T_Sinc_UGRG, 388.2, hit, 2, 0
225, 2, T_Sinc, T_Sinc_DRLR, 403.7, hit, 1, 0
226, 2, T_Scon, T_Scon_DGRG, 423.1, hit, 2, 0
227, 2, T_Sinc, T_Sinc_UGRG, 690.6, hit, 2, 2
228, 2, T_Sinc, T_Sinc_UGRG, 365.9, hit, 2, 0
229, 2, T_Sinc, T_Sinc_UGRG, 365.4, hit, 2, 0
230, 2, T_Sinc, T_Sinc_DRLR, 332.8, hit, 1, 0
231, 2, T_Scon, T_Scon_URLR, 448.3, hit, 1, 0
232, 2, T_Scon, T_Scon_DGRG, 375.7, hit, 2, 0
233, 2, T_Scon, T_Scon_DGRG, 611.2, hit, 2, 0
234, 2, T_Scon, T_Scon_DGRG, 406.6, hit, 2, 0
235, 2, T_Sinc, T_Sinc_DRLR, 430.0, hit, 1, 0
236, 2, T_Sinc, T_Sinc_DRLR, 353.5, hit, 1, 0
237, 2, T_Scon, T_Scon_DGRG, 432.9, hit, 2, 0
238, 2, T_Sinc, T_Sinc_UGRG, 532.4, hit, 2, 0
239, 2, T_Sinc, T_Sinc_DRLR, 375.7, hit, 1, 0
240, 2, T_Sinc, T_Sinc_DRLR, 379.2, hit, 1, 0
241, 2, T_Sinc, T_Sinc_DRLR, 310.7, hit, 1, 0
242, 2, T_Scon, T_Scon_DGRG, 474.1, hit, 2, 0
243, 2, T_Sinc, T_Sinc_DRLR, 317.6, hit, 1, 0
244, 2, T_Sinc, T_Sinc_UGRG, 424.9, hit, 2, 0
245, 2, T_Sinc, T_Sinc_UGRG, 368.4, hit, 2, 0
246, 2, T_Sinc, T_Sinc_UGRG, 347.8, hit, 2, 0
247, 2, T_Scon, T_Scon_DGRG, 335.3, hit, 2, 0
248, 2, T_Sinc, T_Sinc_UGRG, 386.7, hit, 2, 0
249, 2, T_Sinc, T_Sinc_UGRG, 366.2, hit, 2, 0
250, 2, T_Scon, T_Scon_URLR, 477.5, hit, 1, 0
251, 2, T_Sinc, T_Sinc_DRLR, 337.0, hit, 1, 0
252, 2, T_Sinc, T_Sinc_DRLR, 404.5, hit, 1, 0
253, 2, T_Sinc, T_Sinc_UGRG, 431.6, hit, 2, 0
254, 2, T_Scon, T_Scon_URLR, 371.1, hit, 1, 0
255, 2, T_Sinc, T_Sinc_UGRG, 310.4, hit, 2, 0
256, 2, T_Sinc, T_Sinc_UGRG, 357.9, hit, 2, 0
257, 2, T_Scon, T_Scon_DGRG, 321.3, hit, 2, 0
258, 2, T_Scon, T_Scon_URLR, 212.8, hit, 1, 0
259, 2, T_Scon, T_Scon_URLR, 308.2, hit, 1, 0
260, 2, T_Sinc, T_Sinc_DRLR, 339.6, hit, 1, 0
261, 2, T_Sinc, T_Sinc_UGRG, 375.1, hit, 2, 0
262, 2, T_Sinc, T_Sinc_UGRG, 306.5, hit, 2, 0
263, 2, T_Sinc, T_Sinc_DRLR, 334.0, hit, 1, 0
264, 2, T_Sinc, T_Sinc_DRLR, 325.4, hit, 1, 0
265, 2, T_Sinc, T_Sinc_DRLR, 520.9, hit, 1, 0
266, 2, T_Scon, T_Scon_DGRG, 412.2, hit, 2, 0
267, 2, T_Sinc, T_Sinc_DRLR, 723.7, hit, 1, 2
268, 2, T_Scon, T_Scon_URLR, 395.1, hit, 1, 0
269, 2, T_Sinc, T_Sinc_DRLR, 330.6, hit, 1, 0
270, 2, T_Sinc, T_Sinc_UGRG, 394.0, hit, 2, 0
271, 2, T_Sinc, T_Sinc_DRLR, 389.4, hit, 1, 0
272, 2, T_Sinc, T_Sinc_DRLR, 496.9, hit, 1, 0
273, 2, T_Sinc, T_Sinc_DRLR, 308.3, hit, 1, 0
274, 2, T_Scon, T_Scon_DGRG, 331.8, hit, 2, 0
275, 2, T_Sinc, T_Sinc_UGRG, 431.3, hit, 2, 0
276, 2, T_Sinc, T_Sinc_UGRG, 362.7, hit, 2, 0
277, 2, T_Sinc, T_Sinc_UGRG, 322.1, hit, 2, 0
278, 2, T_Sinc, T_Sinc_DRLR, 493.5, hit, 1, 0
279, 2, T_Sinc, T_Sinc_UGRG, 545.0, hit, 2, 0
280, 2, T_Sinc, T_Sinc_UGRG, 532.5, hit, 2, 0
281, 2, T_Sinc, T_Sinc_DRLR, 387.8, hit, 1, 0
282, 2, T_Sinc, T_Sinc_DRLR, 315.3, hit, 1, 0
283, 2, T_Sinc, T_Sinc_UGRG, 382.7, hit, 2, 0
284, 2, T_Scon, T_Scon_URLR, 506.2, hit, 1, 0
285, 2, T_Sinc, T_Sinc_DRLR, 357.7, hit, 1, 0
286, 2, T_Sinc, T_Sinc_UGRG, 369.0, hit, 2, 0
287, 2, T_Sinc, T_Sinc_UGRG, 460.5, hit, 2, 0
288, 2, T_Sinc, T_Sinc_DRLR, 379.9, hit, 1, 0
289, 3, T_Scon, T_Scon_URLR, 359.4, hit, 1, 0
290, 3, T_Scon, T_Scon_DGRG, 346.9, hit, 2, 0
291, 3, T_Sinc, T_Sinc_DRLR, 382.2, incorrect, 2, 1
292, 3, T_Sinc, T_Sinc_UGRG, 521.7, hit, 2, 0
293, 3, T_Scon, T_Scon_DGRG, 537.2, hit, 2, 0
294, 3, T_Sinc, T_Sinc_UGRG, 316.5, hit, 2, 0
295, 3, T_Sinc, T_Sinc_DRLR, 292.0, hit, 1, 0
296, 3, T_Sinc, T_Sinc_UGRG, 395.4, hit, 2, 0
297, 3, T_Sinc, T_Sinc_UGRG, 394.9, hit, 2, 0
298, 3, T_Scon, T_Scon_URLR, 406.3, hit, 1, 0
299, 3, T_Sinc, T_Sinc_DRLR, 321.7, hit, 1, 0
300, 3, T_Sinc, T_Sinc_UGRG, 453.1, hit, 2, 0
301, 3, T_Sinc, T_Sinc_UGRG, 536.6, hit, 2, 0
302, 3, T_Sinc, T_Sinc_UGRG, 364.0, hit, 2, 0
303, 3, T_Scon, T_Scon_URLR, 339.5, hit, 1, 0
304, 3, T_Sinc, T_Sinc_DRLR, 307.0, hit, 1, 0
305, 3, T_Sinc, T_Sinc_UGRG, 522.3, hit, 2, 0
306, 3, T_Scon, T_Scon_URLR, 445.8, hit, 1, 0
307, 3, T_Scon, T_Scon_DGRG, 441.2, hit, 2, 0
308, 3, T_Sinc, T_Sinc_UGRG, 508.6, hit, 2, 0
309, 3, T_Sinc, T_Sinc_UGRG, 380.1, hit, 2, 0
310, 3, T_Scon, T_Scon_DGRG, 399.5, hit, 2, 0
311, 3, T_Sinc, T_Sinc_UGRG, 466.9, hit, 2, 0
312, 3, T_Sinc, T_Sinc_DRLR, 394.4, hit, 1, 0
313, 3, T_Sinc, T_Sinc_DRLR, 321.9, hit, 1, 0
314, 3, T_Sinc, T_Sinc_UGRG, 373.3, hit, 2, 0
315, 3, T_Sinc, T_Sinc_UGRG, 360.8, hit, 2, 0
316, 3, T_Sinc, T_Sinc_DRLR, 352.1, hit, 1, 0
317, 3, T_Sinc, T_Sinc_DRLR, 371.6, hit, 1, 0
318, 3, T_Sinc, T_Sinc_DRLR, 327.0, hit, 1, 0
319, 3, T_Sinc, T_Sinc_UGRG, 426.5, hit, 2, 0
320, 3, T_Sinc, T_Sinc_DRLR, 325.9, hit, 1, 0
321, 3, T_Sinc, T_Sinc_UGRG, 365.3, hit, 2, 0
322, 3, T_Scon, T_Scon_URLR, 652.8, hit, 1, 0
323, 3, T_Sinc, T_Sinc_UGRG, 372.2, hit, 2, 0
324, 3, T_Sinc, T_Sinc_DRLR, 351.7, hit, 1, 0
325, 3, T_Sinc, T_Sinc_UGRG, 478.8, hit, 2, 0
326, 3, T_Sinc, T_Sinc_DRLR, 346.2, hit, 1, 0
327, 3, T_Scon, T_Scon_DGRG, 445.7, hit, 2, 0
328, 3, T_Sinc, T_Sinc_UGRG, 465.1, hit, 2, 0
329, 3, T_Sinc, T_Sinc_DRLR, 316.6, hit, 1, 0
330, 3, T_Sinc, T_Sinc_DRLR, 527.9, hit, 1, 0
331, 3, T_Sinc, T_Sinc_UGRG, 371.5, hit, 2, 0
332, 3, T_Sinc, T_Sinc_DRLR, 306.8, hit, 1, 0
333, 3, T_Scon, T_Scon_DGRG, 726.3, hit, 2, 2
334, 3, T_Sinc, T_Sinc_DRLR, 401.7, hit, 1, 0
335, 3, T_Sinc, T_Sinc_DRLR, 725.2, hit, 1, 2
336, 3, T_Sinc, T_Sinc_UGRG, 436.7, hit, 2, 0
337, 3, T_Sinc, T_Sinc_UGRG, 692.0, hit, 2, 2
338, 3, T_Sinc, T_Sinc_DRLR, 327.5, hit, 1, 0
339, 3, T_Scon, T_Scon_URLR, 422.9, incorrect, 2, 1
340, 3, T_Sinc, T_Sinc_UGRG, 370.4, hit, 2, 0
341, 3, T_Scon, T_Scon_URLR, 413.8, hit, 1, 0
342, 3, T_Sinc, T_Sinc_DRLR, 361.2, hit, 1, 0
343, 3, T_Sinc, T_Sinc_UGRG, 516.6, hit, 2, 0
344, 3, T_Sinc, T_Sinc_DRLR, 360.1, hit, 1, 0
345, 3, T_Sinc, T_Sinc_UGRG, 419.5, hit, 2, 0
346, 3, T_Sinc, T_Sinc_UGRG, 711.0, hit, 2, 2
347, 3, T_Sinc, T_Sinc_DRLR, 298.4, hit, 1, 0
348, 3, T_Sinc, T_Sinc_DRLR, 301.8, hit, 1, 0
349, 3, T_Scon, T_Scon_DGRG, 317.3, hit, 2, 0
350, 3, T_Sinc, T_Sinc_UGRG, 632.7, hit, 2, 0
351, 3, T_Sinc, T_Sinc_DRLR, 408.2, hit, 1, 0
352, 3, T_Scon, T_Scon_URLR, 407.6, hit, 1, 0
353, 3, T_Scon, T_Scon_URLR, 327.0, hit, 1, 0
354, 3, T_Sinc, T_Sinc_DRLR, 362.5, hit, 1, 0
355, 3, T_Scon, T_Scon_DGRG, 349.9, hit, 2, 0
356, 3, T_Scon, T_Scon_DGRG, 553.4, hit, 2, 0
357, 3, T_Sinc, T_Sinc_DRLR, 484.8, hit, 1, 0
358, 3, T_Sinc, T_Sinc_DRLR, 344.2, hit, 1, 0
359, 3, T_Sinc, T_Sinc_UGRG, 323.7, hit, 2, 0
360, 3, T_Sinc, T_Sinc_UGRG, 415.1, hit, 2, 0
361, 3, T_Scon, T_Scon_DGRG, 494.3, hit, 2, 0
362, 3, T_Sinc, T_Sinc_UGRG, 345.6, hit, 2, 0
363, 3, T_Sinc, T_Sinc_DRLR, 385.1, hit, 1, 0
364, 3, T_Sinc, T_Sinc_DRLR, 304.6, hit, 1, 0
365, 3, T_Sinc, T_Sinc_DRLR, 344.0, hit, 1, 0
366, 3, T_Sinc, T_Sinc_UGRG, 339.5, hit, 2, 0
367, 3, T_Scon, T_Scon_DGRG, 462.9, hit, 2, 0
368, 3, T_Sinc, T_Sinc_UGRG, 390.4, hit, 2, 0
369, 3, T_Scon, T_Scon_DGRG, 305.7, hit, 2, 0
370, 3, T_Sinc, T_Sinc_UGRG, 253.2, hit, 2, 0
371, 3, T_Sinc, T_Sinc_DRLR, 364.7, hit, 1, 0
372, 3, T_Scon, T_Scon_URLR, 312.1, hit, 1, 0
373, 3, T_Scon, T_Scon_DGRG, 355.6, hit, 2, 0
374, 3, T_Scon, T_Scon_DGRG, 510.9, hit, 2, 0
375, 3, T_Scon, T_Scon_URLR, 306.4, hit, 1, 0
376, 3, T_Scon, T_Scon_URLR, 465.8, hit, 1, 0
377, 3, T_Sinc, T_Sinc_DRLR, 329.2, hit, 1, 0
378, 3, T_Sinc, T_Sinc_DRLR, 292.7, hit, 1, 0
379, 3, T_Sinc, T_Sinc_DRLR, 272.1, hit, 1, 0
380, 3, T_Sinc, T_Sinc_UGRG, 375.5, hit, 2, 0
381, 3, T_Sinc, T_Sinc_DRLR, 371.0, hit, 1, 0
382, 3, T_Sinc, T_Sinc_DRLR, 318.4, hit, 1, 0
383, 3, T_Sinc, T_Sinc_DRLR, 289.9, hit, 1, 0
384, 3, T_Scon, T_Scon_DGRG, 253.3, hit, 2, 0
385, 3, T_Sinc, T_Sinc_UGRG, 360.7, incorrect, 1, 1
386, 3, T_Sinc, T_Sinc_DRLR, 272.2, hit, 1, 0
387, 3, T_Sinc, T_Sinc_DRLR, 395.6, hit, 1, 0
388, 3, T_Sinc, T_Sinc_UGRG, 307.1, hit, 2, 0
389, 3, T_Sinc, T_Sinc_UGRG, 474.4, hit, 2, 0
390, 3, T_Sinc, T_Sinc_DRLR, 289.9, hit, 1, 0
391, 3, T_Scon, T_Scon_URLR, 241.3, hit, 1, 0
392, 3, T_Sinc, T_Sinc_DRLR, 308.8, hit, 1, 0
393, 3, T_Sinc, T_Sinc_DRLR, 288.3, hit, 1, 0
394, 3, T_Sinc, T_Sinc_DRLR, 299.7, hit, 1, 0
395, 3, T_Sinc, T_Sinc_UGRG, 271.1, hit, 2, 0
396, 3, T_Scon, T_Scon_URLR, 450.5, hit, 1, 0
397, 3, T_Sinc, T_Sinc_DRLR, 421.7, hit, 1, 0
398, 3, T_Sinc, T_Sinc_DRLR, 329.2, hit, 1, 0
399, 3, T_Sinc, T_Sinc_DRLR, 352.6, hit, 1, 0
400, 3, T_Sinc, T_Sinc_UGRG, 364.0, hit, 2, 0
401, 3, T_Scon, T_Scon_DGRG, 447.4, hit, 2, 0
402, 3, T_Sinc, T_Sinc_UGRG, 338.9, hit, 2, 0
403, 3, T_Sinc, T_Sinc_DRLR, 374.4, hit, 1, 0
404, 3, T_Sinc, T_Sinc_UGRG, 333.8, hit, 2, 0
405, 3, T_Sinc, T_Sinc_UGRG, 369.2, hit, 2, 0
406, 3, T_Sinc, T_Sinc_DRLR, 396.6, hit, 1, 0
407, 3, T_Scon, T_Scon_URLR, 312.1, hit, 1, 0
408, 3, T_Sinc, T_Sinc_UGRG, 415.6, hit, 2, 0
409, 3, T_Sinc, T_Sinc_UGRG, 423.0, hit, 2, 0
410, 3, T_Scon, T_Scon_DGRG, 430.4, hit, 2, 0
411, 3, T_Scon, T_Scon_URLR, 361.8, hit, 1, 0
412, 3, T_Sinc, T_Sinc_UGRG, 545.3, hit, 2, 0
413, 3, T_Sinc, T_Sinc_DRLR, 356.7, hit, 1, 0
414, 3, T_Sinc, T_Sinc_DRLR, 408.2, hit, 1, 0
415, 3, T_Sinc, T_Sinc_UGRG, 399.6, hit, 2, 0
416, 3, T_Sinc, T_Sinc_DRLR, 323.0, hit, 1, 0
417, 3, T_Scon, T_Scon_DGRG, 414.5, hit, 2, 0
418, 3, T_Sinc, T_Sinc_UGRG, 353.9, hit, 2, 0
419, 3, T_Scon, T_Scon_URLR, 373.4, hit, 1, 0
420, 3, T_Sinc, T_Sinc_DRLR, 384.8, incorrect, 2, 1
421, 3, T_Sinc, T_Sinc_UGRG, 456.2, hit, 2, 0
422, 3, T_Sinc, T_Sinc_DRLR, 407.6, hit, 1, 0
423, 3, T_Sinc, T_Sinc_UGRG, 683.1, hit, 2, 0
424, 3, T_Sinc, T_Sinc_DRLR, 346.6, hit, 1, 0
425, 3, T_Sinc, T_Sinc_DRLR, 350.0, hit, 1, 0
426, 3, T_Sinc, T_Sinc_UGRG, 393.4, hit, 2, 0
427, 3, T_Sinc, T_Sinc_UGRG, 460.8, hit, 2, 0
428, 3, T_Sinc, T_Sinc_UGRG, 324.3, hit, 2, 0
429, 3, T_Sinc, T_Sinc_UGRG, 351.7, hit, 2, 0
430, 3, T_Scon, T_Scon_URLR, 379.2, hit, 1, 0
431, 3, T_Sinc, T_Sinc_UGRG, 398.6, hit, 2, 0
432, 3, T_Sinc, T_Sinc_UGRG, 346.0, hit, 2, 0
433, 4, T_Scon, T_Scon_DGRG, 547.3, hit, 2, 0
434, 4, T_Scon, T_Scon_DGRG, 374.7, hit, 2, 0
435, 4, T_Sinc, T_Sinc_DRLR, 386.2, hit, 1, 0
436, 4, T_Scon, T_Scon_DGRG, 377.7, hit, 2, 0
437, 4, T_Scon, T_Scon_URLR, 477.1, hit, 1, 0
438, 4, T_Sinc, T_Sinc_DRLR, 416.5, hit, 1, 0
439, 4, T_Scon, T_Scon_URLR, 327.9, hit, 1, 0
440, 4, T_Scon, T_Scon_DGRG, 395.4, hit, 2, 0
441, 4, T_Scon, T_Scon_DGRG, 366.8, hit, 2, 0
442, 4, T_Scon, T_Scon_DGRG, 278.3, hit, 2, 0
443, 4, T_Scon, T_Scon_DGRG, 493.6, hit, 2, 0
444, 4, T_Scon, T_Scon_DGRG, 317.1, hit, 2, 0
445, 4, T_Scon, T_Scon_DGRG, 404.6, hit, 2, 0
446, 4, T_Sinc, T_Sinc_UGRG, 368.0, hit, 2, 0
447, 4, T_Scon, T_Scon_DGRG, 315.5, hit, 2, 0
448, 4, T_Sinc, T_Sinc_DRLR, 410.9, hit, 1, 0
449, 4, T_Scon, T_Scon_DGRG, 370.3, hit, 2, 0
450, 4, T_Scon, T_Scon_DGRG, 497.7, hit, 2, 0
451, 4, T_Scon, T_Scon_URLR, 701.2, hit, 1, 2
452, 4, T_Sinc, T_Sinc_DRLR, 344.6, hit, 1, 0
453, 4, T_Scon, T_Scon_URLR, 356.1, hit, 1, 0
454, 4, T_Scon, T_Scon_URLR, 311.4, hit, 1, 0
455, 4, T_Sinc, T_Sinc_UGRG, 382.9, hit, 2, 0
456, 4, T_Scon, T_Scon_URLR, 598.4, hit, 1, 0
457, 4, T_Scon, T_Scon_URLR, 497.8, hit, 1, 0
458, 4, T_Scon, T_Scon_DGRG, 413.3, hit, 2, 0
459, 4, T_Sinc, T_Sinc_UGRG, 352.6, incorrect, 1, 1
460, 4, T_Scon, T_Scon_DGRG, 404.1, hit, 2, 0
461, 4, T_Scon, T_Scon_URLR, 459.5, hit, 1, 0
462, 4, T_Scon, T_Scon_URLR, 359.0, hit, 1, 0
463, 4, T_Scon, T_Scon_URLR, 446.5, hit, 1, 0
464, 4, T_Scon, T_Scon_URLR, 305.9, hit, 1, 0
465, 4, T_Scon, T_Scon_URLR, 313.3, hit, 1, 0
466, 4, T_Scon, T_Scon_DGRG, 380.7, hit, 2, 0
467, 4, T_Scon, T_Scon_DGRG, 412.2, hit, 2, 0
468, 4, T_Scon, T_Scon_URLR, 407.6, hit, 1, 0
469, 4, T_Scon, T_Scon_URLR, 402.8, hit, 1, 0
470, 4, T_Sinc, T_Sinc_UGRG, 390.2, hit, 2, 0
471, 4, T_Sinc, T_Sinc_UGRG, 505.6, hit, 2, 0
472, 4, T_Scon, T_Scon_DGRG, 401.1, hit, 2, 0
473, 4, T_Scon, T_Scon_URLR, 340.5, hit, 1, 0
474, 4, T_Scon, T_Scon_DGRG, 384.0, hit, 2, 0
475, 4, T_Scon, T_Scon_DGRG, 471.3, hit, 2, 0
476, 4, T_Scon, T_Scon_URLR, 370.8, hit, 1, 0
477, 4, T_Scon, T_Scon_URLR, 334.2, hit, 1, 0
478, 4, T_Scon, T_Scon_DGRG, 341.7, hit, 2, 0
479, 4, T_Scon, T_Scon_URLR, 281.2, hit, 1, 0
480, 4, T_Sinc, T_Sinc_UGRG, 460.6, hit, 2, 0
481, 4, T_Scon, T_Scon_DGRG, 472.0, hit, 2, 0
482, 4, T_Scon, T_Scon_URLR, 319.4, hit, 1, 0
483, 4, T_Scon, T_Scon_DGRG, 434.9, hit, 2, 0
484, 4, T_Scon, T_Scon_DGRG, 334.4, hit, 2, 0
485, 4, T_Scon, T_Scon_DGRG, 385.8, hit, 2, 0
486, 4, T_Scon, T_Scon_DGRG, 521.2, hit, 2, 0
487, 4, T_Sinc, T_Sinc_UGRG, 396.6, hit, 2, 0
488, 4, T_Scon, T_Scon_URLR, 360.1, hit, 1, 0
489, 4, T_Scon, T_Scon_URLR, 307.5, hit, 1, 0
490, 4, T_Sinc, T_Sinc_DRLR, 375.0, hit, 1, 0
491, 4, T_Sinc, T_Sinc_UGRG, 358.3, hit, 2, 0
492, 4, T_Sinc, T_Sinc_UGRG, 329.8, hit, 2, 0
493, 4, T_Scon, T_Scon_URLR, 445.3, hit, 1, 0
494, 4, T_Scon, T_Scon_DGRG, 368.7, hit, 2, 0
495, 4, T_Scon, T_Scon_URLR, 444.2, hit, 1, 0
496, 4, T_Sinc, T_Sinc_UGRG, 415.5, hit, 2, 0
497, 4, T_Scon, T_Scon_DGRG, 507.0, hit, 2, 0
498, 4, T_Scon, T_Scon_DGRG, 358.5, hit, 2, 0
499, 4, T_Sinc, T_Sinc_DRLR, 365.9, hit, 1, 0
500, 4, T_Sinc, T_Sinc_UGRG, 397.4, hit, 2, 0
501, 4, T_Scon, T_Scon_URLR, 500.8, hit, 1, 0
502, 4, T_Sinc, T_Sinc_DRLR, 312.2, hit, 1, 0
503, 4, T_Sinc, T_Sinc_DRLR, 375.6, hit, 1, 0
504, 4, T_Scon, T_Scon_URLR, 311.1, hit, 1, 0
505, 4, T_Scon, T_Scon_DGRG, 358.3, hit, 2, 0
506, 4, T_Scon, T_Scon_DGRG, 437.7, hit, 2, 0
507, 4, T_Sinc, T_Sinc_UGRG, 545.1, hit, 2, 0
508, 4, T_Sinc, T_Sinc_UGRG, 300.5, hit, 2, 0
509, 4, T_Scon, T_Scon_DGRG, 316.0, hit, 2, 0
510, 4, T_Scon, T_Scon_URLR, 375.4, hit, 1, 0
511, 4, T_Scon, T_Scon_URLR, 234.8, hit, 1, 0
512, 4, T_Scon, T_Scon_URLR, 302.2, hit, 1, 0
513, 4, T_Sinc, T_Sinc_DRLR, 353.7, hit, 1, 0
514, 4, T_Scon, T_Scon_DGRG, 317.1, hit, 2, 0
515, 4, T_Scon, T_Scon_DGRG, 528.6, hit, 2, 0
516, 4, T_Scon, T_Scon_URLR, 348.1, hit, 1, 0
517, 4, T_Scon, T_Scon_DGRG, 347.5, hit, 2, 0
518, 4, T_Scon, T_Scon_URLR, 426.9, hit, 1, 0
519, 4, T_Scon, T_Scon_DGRG, 598.3, hit, 2, 0
520, 4, T_Scon, T_Scon_URLR, 437.8, hit, 1, 0
521, 4, T_Scon, T_Scon_DGRG, 493.2, hit, 2, 0
522, 4, T_Scon, T_Scon_URLR, 352.7, hit, 1, 0
523, 4, T_Sinc, T_Sinc_UGRG, 364.0, hit, 2, 0
524, 4, T_Scon, T_Scon_URLR, 447.5, hit, 1, 0
525, 4, T_Scon, T_Scon_DGRG, 291.0, hit, 2, 0
526, 4, T_Sinc, T_Sinc_DRLR, 598.4, hit, 1, 0
527, 4, T_Sinc, T_Sinc_DRLR, 285.9, hit, 1, 0
528, 4, T_Scon, T_Scon_URLR, 345.3, hit, 1, 0
529, 4, T_Scon, T_Scon_URLR, 396.7, hit, 1, 0
530, 4, T_Scon, T_Scon_URLR, 280.1, hit, 1, 0
531, 4, T_Sinc, T_Sinc_DRLR, 387.6, hit, 1, 0
532, 4, T_Sinc, T_Sinc_DRLR, 355.0, hit, 1, 0
533, 4, T_Scon, T_Scon_DGRG, 318.4, hit, 2, 0
534, 4, T_Sinc, T_Sinc_UGRG, 281.9, hit, 2, 0
535, 4, T_Scon, T_Scon_DGRG, 305.3, hit, 2, 0
536, 4, T_Scon, T_Scon_URLR, 396.8, hit, 1, 0
537, 4, T_Sinc, T_Sinc_DRLR, 332.2, hit, 1, 0
538, 4, T_Scon, T_Scon_URLR, 319.7, hit, 1, 0
539, 4, T_Scon, T_Scon_DGRG, 395.0, hit, 2, 0
540, 4, T_Scon, T_Scon_DGRG, 390.5, hit, 2, 0
541, 4, T_Sinc, T_Sinc_DRLR, 609.6, hit, 1, 0
542, 4, T_Scon, T_Scon_DGRG, 361.1, hit, 2, 0
543, 4, T_Scon, T_Scon_URLR, 268.6, hit, 1, 0
544, 4, T_Sinc, T_Sinc_DRLR, 287.9, hit, 1, 0
545, 4, T_Scon, T_Scon_URLR, 243.4, hit, 1, 0
546, 4, T_Sinc, T_Sinc_DRLR, 374.8, hit, 1, 0
547, 4, T_Scon, T_Scon_URLR, 366.3, hit, 1, 0
548, 4, T_Scon, T_Scon_URLR, 289.7, hit, 1, 0
549, 4, T_Scon, T_Scon_DGRG, 409.1, hit, 2, 0
550, 4, T_Scon, T_Scon_URLR, 340.6, hit, 1, 0
551, 4, T_Scon, T_Scon_URLR, 288.0, hit, 1, 0
552, 4, T_Sinc, T_Sinc_UGRG, 371.5, hit, 2, 0
553, 4, T_Scon, T_Scon_URLR, 438.9, hit, 1, 0
554, 4, T_Scon, T_Scon_URLR, 362.4, hit, 1, 0
555, 4, T_Scon, T_Scon_DGRG, 389.8, hit, 2, 0
556, 4, T_Scon, T_Scon_DGRG, 405.2, hit, 2, 0
557, 4, T_Scon, T_Scon_DGRG, 344.7, hit, 2, 0
558, 4, T_Scon, T_Scon_DGRG, 284.1, hit, 2, 0
559, 4, T_Sinc, T_Sinc_UGRG, 367.6, hit, 2, 0
560, 4, T_Scon, T_Scon_DGRG, 390.9, hit, 2, 0
561, 4, T_Sinc, T_Sinc_UGRG, 394.4, hit, 2, 0
562, 4, T_Scon, T_Scon_URLR, 305.8, hit, 1, 0
563, 4, T_Scon, T_Scon_URLR, 261.3, hit, 1, 0
564, 4, T_Scon, T_Scon_DGRG, 328.7, hit, 2, 0
565, 4, T_Sinc, T_Sinc_DRLR, 380.1, hit, 1, 0
566, 4, T_Scon, T_Scon_DGRG, 415.6, hit, 2, 0
567, 4, T_Scon, T_Scon_URLR, 291.0, hit, 1, 0
568, 4, T_Scon, T_Scon_URLR, 354.5, hit, 1, 0
569, 4, T_Scon, T_Scon_URLR, 265.9, hit, 1, 0
570, 4, T_Scon, T_Scon_URLR, 361.3, hit, 1, 0
571, 4, T_Scon, T_Scon_DGRG, 312.8, hit, 2, 0
572, 4, T_Scon, T_Scon_DGRG, 348.2, hit, 2, 0
573, 4, T_Scon, T_Scon_URLR, 279.7, hit, 1, 0
574, 4, T_Scon, T_Scon_DGRG, 363.1, hit, 2, 0
575, 4, T_Scon, T_Scon_URLR, 246.5, hit, 1, 0
576, 4, T_Scon, T_Scon_DGRG, 393.9, hit, 2, 0
577, 5, T_Scon, T_Scon_DGRG, 610.0, hit, 2, 0
578, 5, T_Scon, T_Scon_URLR, 545.3, hit, 1, 0
579, 5, T_Sinc, T_Sinc_DRLR, 292.8, hit, 1, 0
580, 5, T_Scon, T_Scon_DGRG, 348.3, hit, 2, 0
581, 5, T_Scon, T_Scon_DGRG, 331.7, hit, 2, 0
582, 5, T_Sinc, T_Sinc_DRLR, 395.2, hit, 1, 0
583, 5, T_Scon, T_Scon_DGRG, 346.5, hit, 2, 0
584, 5, T_Scon, T_Scon_DGRG, 370.0, hit, 2, 0
585, 5, T_Sinc, T_Sinc_UGRG, 373.4, hit, 2, 0
586, 5, T_Sinc, T_Sinc_UGRG, 392.9, hit, 2, 0
587, 5, T_Scon, T_Scon_DGRG, 284.4, hit, 2, 0
588, 5, T_Scon, T_Scon_DGRG, 343.8, hit, 2, 0
589, 5, T_Sinc, T_Sinc_UGRG, 431.2, hit, 2, 0
590, 5, T_Scon, T_Scon_URLR, 398.6, hit, 1, 0
591, 5, T_Scon, T_Scon_URLR, 314.1, hit, 1, 0
592, 5, T_Sinc, T_Sinc_UGRG, 381.6, hit, 2, 0
593, 5, T_Scon, T_Scon_DGRG, 408.9, hit, 2, 0
594, 5, T_Scon, T_Scon_URLR, 332.4, hit, 1, 0
595, 5, T_Scon, T_Scon_DGRG, 347.8, hit, 2, 0
596, 5, T_Sinc, T_Sinc_DRLR, 375.3, hit, 1, 0
597, 5, T_Scon, T_Scon_DGRG, 322.7, hit, 2, 0
598, 5, T_Scon, T_Scon_URLR, 374.1, hit, 1, 0
599, 5, T_Scon, T_Scon_URLR, 309.6, hit, 1, 0
600, 5, T_Scon, T_Scon_DGRG, 341.0, hit, 2, 0
601, 5, T_Scon, T_Scon_DGRG, 596.5, hit, 2, 0
602, 5, T_Scon, T_Scon_DGRG, 371.9, hit, 2, 0
603, 5, T_Scon, T_Scon_DGRG, 415.4, hit, 2, 0
604, 5, T_Sinc, T_Sinc_UGRG, 282.7, incorrect, 1, 1
605, 5, T_Scon, T_Scon_URLR, 302.2, hit, 1, 0
606, 5, T_Scon, T_Scon_DGRG, 377.6, hit, 2, 0
607, 5, T_Scon, T_Scon_URLR, 325.1, hit, 1, 0
608, 5, T_Scon, T_Scon_DGRG, 376.6, hit, 2, 0
609, 5, T_Sinc, T_Sinc_DRLR, 371.9, hit, 1, 0
610, 5, T_Scon, T_Scon_DGRG, 387.5, hit, 2, 0
611, 5, T_Scon, T_Scon_URLR, 302.8, hit, 1, 0
612, 5, T_Scon, T_Scon_DGRG, 294.3, hit, 2, 0
613, 5, T_Scon, T_Scon_DGRG, 521.4, hit, 2, 0
614, 5, T_Scon, T_Scon_DGRG, 340.8, hit, 2, 0
615, 5, T_Scon, T_Scon_DGRG, 264.3, hit, 2, 0
616, 5, T_Scon, T_Scon_URLR, 379.7, hit, 1, 0
617, 5, T_Sinc, T_Sinc_UGRG, 447.2, hit, 2, 0
618, 5, T_Scon, T_Scon_DGRG, 418.6, hit, 2, 0
619, 5, T_Scon, T_Scon_URLR, 378.0, hit, 1, 0
620, 5, T_Sinc, T_Sinc_DRLR, 349.4, hit, 1, 0
621, 5, T_Sinc, T_Sinc_DRLR, 312.9, hit, 1, 0
622, 5, T_Sinc, T_Sinc_UGRG, 688.3, hit, 2, 2
623, 5, T_Sinc, T_Sinc_DRLR, 343.8, hit, 1, 0
624, 5, T_Scon, T_Scon_DGRG, 427.3, hit, 2, 0
625, 5, T_Sinc, T_Sinc_DRLR, 326.6, hit, 1, 0
626, 5, T_Scon, T_Scon_URLR, 362.1, incorrect, 2, 1
627, 5, T_Scon, T_Scon_DGRG, 261.5, hit, 2, 0
628, 5, T_Scon, T_Scon_URLR, 401.0, hit, 1, 0
629, 5, T_Scon, T_Scon_DGRG, 364.3, hit, 2, 0
630, 5, T_Sinc, T_Sinc_DRLR, 319.9, hit, 1, 0
631, 5, T_Sinc, T_Sinc_UGRG, 315.3, hit, 2, 0
632, 5, T_Scon, T_Scon_URLR, 290.7, hit, 1, 0
633, 5, T_Scon, T_Scon_URLR, 342.2, hit, 1, 0
634, 5, T_Scon, T_Scon_DGRG, 421.5, hit, 2, 0
635, 5, T_Scon, T_Scon_DGRG, 729.1, hit, 2, 2
636, 5, T_Scon, T_Scon_URLR, 288.4, hit, 1, 0
637, 5, T_Scon, T_Scon_DGRG, 335.9, hit, 2, 0
638, 5, T_Scon, T_Scon_URLR, 515.3, hit, 1, 0
639, 5, T_Scon, T_Scon_URLR, 354.8, hit, 1, 0
640, 5, T_Scon, T_Scon_URLR, 294.3, hit, 1, 0
641, 5, T_Sinc, T_Sinc_DRLR, 321.6, hit, 1, 0
642, 5, T_Scon, T_Scon_URLR, 253.1, hit, 1, 0
643, 5, T_Scon, T_Scon_URLR, 320.5, hit, 1, 0
644, 5, T_Scon, T_Scon_URLR, 224.0, hit, 1, 0
645, 5, T_Scon, T_Scon_DGRG, 371.4, hit, 2, 0
646, 5, T_Scon, T_Scon_URLR, 398.8, hit, 1, 0
647, 5, T_Sinc, T_Sinc_UGRG, 474.2, hit, 2, 0
648, 5, T_Sinc, T_Sinc_DRLR, 325.7, hit, 1, 0
649, 5, T_Scon, T_Scon_DGRG, 424.9, hit, 2, 0
650, 5, T_Scon, T_Scon_DGRG, 404.3, hit, 2, 0
651, 5, T_Sinc, T_Sinc_UGRG, 319.8, hit, 2, 0
652, 5, T_Scon, T_Scon_URLR, 439.1, hit, 1, 0
653, 5, T_Scon, T_Scon_URLR, 262.6, hit, 1, 0
654, 5, T_Sinc, T_Sinc_UGRG, 378.0, hit, 2, 0
655, 5, T_Scon, T_Scon_URLR, 445.5, hit, 1, 0
656, 5, T_Sinc, T_Sinc_DRLR, 448.9, hit, 1, 0
657, 5, T_Scon, T_Scon_URLR, 336.3, hit, 1, 0
658, 5, T_Scon, T_Scon_DGRG, 379.8, hit, 2, 0
659, 5, T_Sinc, T_Sinc_UGRG, 535.2, hit, 2, 0
660, 5, T_Sinc, T_Sinc_DRLR, 378.6, hit, 1, 0
661, 5, T_Scon, T_Scon_URLR, 318.0, hit, 1, 0
662, 5, T_Scon, T_Scon_URLR, 341.5, hit, 1, 0
663, 5, T_Sinc, T_Sinc_UGRG, 376.9, hit, 2, 0
664, 5, T_Scon, T_Scon_DGRG, 476.4, hit, 2, 0
665, 5, T_Scon, T_Scon_DGRG, 359.8, hit, 2, 0
666, 5, T_Sinc, T_Sinc_DRLR, 323.3, hit, 1, 0
667, 5, T_Scon, T_Scon_DGRG, 502.7, hit, 2, 0
668, 5, T_Scon, T_Scon_URLR, 342.1, hit, 1, 0
669, 5, T_Sinc, T_Sinc_DRLR, 421.6, hit, 1, 0
670, 5, T_Scon, T_Scon_URLR, 341.0, hit, 1, 0
671, 5, T_Scon, T_Scon_URLR, 252.5, hit, 1, 0
672, 5, T_Sinc, T_Sinc_UGRG, 367.8, hit, 2, 0
673, 5, T_Scon, T_Scon_DGRG, 351.3, hit, 2, 0
674, 5, T_Scon, T_Scon_URLR, 258.7, hit, 1, 0
675, 5, T_Scon, T_Scon_URLR, 286.2, hit, 1, 0
676, 5, T_Scon, T_Scon_URLR, 337.7, hit, 1, 0
677, 5, T_Scon, T_Scon_DGRG, 389.1, hit, 2, 0
678, 5, T_Scon, T_Scon_URLR, 320.5, hit, 1, 0
679, 5, T_Scon, T_Scon_URLR, 279.9, hit, 1, 0
680, 5, T_Scon, T_Scon_DGRG, 315.4, hit, 2, 0
681, 5, T_Scon, T_Scon_URLR, 302.9, hit, 1, 0
682, 5, T_Sinc, T_Sinc_UGRG, 414.3, hit, 2, 0
683, 5, T_Sinc, T_Sinc_DRLR, 361.7, hit, 1, 0
684, 5, T_Scon, T_Scon_URLR, 301.1, hit, 1, 0
685, 5, T_Scon, T_Scon_URLR, 540.4, hit, 1, 0
686, 5, T_Scon, T_Scon_URLR, 279.7, hit, 1, 0
687, 5, T_Scon, T_Scon_DGRG, 395.2, hit, 2, 0
688, 5, T_Scon, T_Scon_DGRG, 318.6, hit, 2, 0
689, 5, T_Scon, T_Scon_DGRG, 578.0, hit, 2, 0
690, 5, T_Scon, T_Scon_URLR, 409.5, hit, 1, 0
691, 5, T_Scon, T_Scon_URLR, 300.9, hit, 1, 0
692, 5, T_Scon, T_Scon_DGRG, 336.4, hit, 2, 0
693, 5, T_Scon, T_Scon_DGRG, 407.7, incorrect, 1, 1
694, 5, T_Sinc, T_Sinc_DRLR, 291.2, hit, 1, 0
695, 5, T_Sinc, T_Sinc_DRLR, 490.6, hit, 1, 0
696, 5, T_Scon, T_Scon_DGRG, 278.1, hit, 2, 0
697, 5, T_Scon, T_Scon_DGRG, 545.6, hit, 2, 0
698, 5, T_Scon, T_Scon_URLR, 393.0, hit, 1, 0
699, 5, T_Scon, T_Scon_DGRG, 348.4, hit, 2, 0
700, 5, T_Scon, T_Scon_URLR, 375.8, hit, 1, 0
701, 5, T_Scon, T_Scon_DGRG, 435.3, hit, 2, 0
702, 5, T_Sinc, T_Sinc_UGRG, 382.7, hit, 2, 0
703, 5, T_Scon, T_Scon_DGRG, 598.2, hit, 2, 0
704, 5, T_Scon, T_Scon_URLR, 361.5, hit, 1, 0
705, 5, T_Scon, T_Scon_URLR, 353.0, hit, 1, 0
706, 5, T_Scon, T_Scon_URLR, 308.5, hit, 1, 0
707, 5, T_Scon, T_Scon_URLR, 275.9, hit, 1, 0
708, 5, T_Scon, T_Scon_DGRG, 271.4, hit, 2, 0
709, 5, T_Scon, T_Scon_DGRG, 518.8, hit, 2, 0
710, 5, T_Scon, T_Scon_DGRG, 258.2, hit, 2, 0
711, 5, T_Scon, T_Scon_DGRG, 269.6, hit, 2, 0
712, 5, T_Scon, T_Scon_URLR, 373.1, hit, 1, 0
713, 5, T_Scon, T_Scon_URLR, 312.5, hit, 1, 0
714, 5, T_Sinc, T_Sinc_UGRG, 364.0, hit, 2, 0
715, 5, T_Scon, T_Scon_DGRG, 371.5, incorrect, 1, 1
716, 5, T_Sinc, T_Sinc_UGRG, 390.8, hit, 2, 0
717, 5, T_Scon, T_Scon_DGRG, 634.3, hit, 2, 0
718, 5, T_Scon, T_Scon_URLR, 317.7, hit, 1, 0
719, 5, T_Scon, T_Scon_URLR, 289.2, hit, 1, 0
720, 5, T_Scon, T_Scon_URLR, 348.6, hit, 1, 0
721, 6, T_Scon, T_Scon_DGRG, 470.1, hit, 2, 0
722, 6, T_Scon, T_Scon_DGRG, 345.5, hit, 2, 0
723, 6, T_Scon, T_Scon_URLR, 313.0, hit, 1, 0
724, 6, T_Scon, T_Scon_URLR, 252.4, hit, 1, 0
725, 6, T_Sinc, T_Sinc_DRLR, 407.9, hit, 1, 0
726, 6, T_Sinc, T_Sinc_UGRG, 403.2, hit, 2, 0
727, 6, T_Sinc, T_Sinc_UGRG, 294.7, hit, 2, 0
728, 6, T_Scon, T_Scon_URLR, 446.1, hit, 1, 0
729, 6, T_Scon, T_Scon_URLR, 313.6, hit, 1, 0
730, 6, T_Scon, T_Scon_URLR, 333.1, hit, 1, 0
731, 6, T_Scon, T_Scon_DGRG, 344.4, hit, 2, 0
732, 6, T_Scon, T_Scon_URLR, 315.9, hit, 1, 0
733, 6, T_Scon, T_Scon_DGRG, 455.3, hit, 2, 0
734, 6, T_Sinc, T_Sinc_UGRG, 418.8, hit, 2, 0
735, 6, T_Scon, T_Scon_DGRG, 362.1, hit, 2, 0
736, 6, T_Sinc, T_Sinc_UGRG, 273.6, hit, 2, 0
737, 6, T_Scon, T_Scon_DGRG, 293.1, hit, 2, 0
738, 6, T_Scon, T_Scon_DGRG, 424.5, hit, 2, 0
739, 6, T_Sinc, T_Sinc_UGRG, 348.0, hit, 2, 0
740, 6, T_Scon, T_Scon_URLR, 391.4, hit, 1, 0
741, 6, T_Scon, T_Scon_URLR, 306.8, hit, 1, 0
742, 6, T_Sinc, T_Sinc_UGRG, 394.2, hit, 2, 0
743, 6, T_Sinc, T_Sinc_UGRG, 737.7, hit, 2, 2
744, 6, T_Scon, T_Scon_URLR, 429.2, hit, 1, 0
745, 6, T_Sinc, T_Sinc_DRLR, 316.5, hit, 1, 0
746, 6, T_Scon, T_Scon_DGRG, 348.1, hit, 2, 0
747, 6, T_Sinc, T_Sinc_DRLR, 407.4, hit, 1, 0
748, 6, T_Scon, T_Scon_DGRG, 426.9, hit, 2, 0
749, 6, T_Scon, T_Scon_URLR, 382.3, hit, 1, 0
750, 6, T_Scon, T_Scon_DGRG, 393.8, hit, 2, 0
751, 6, T_Scon, T_Scon_DGRG, 501.2, hit, 2, 0
752, 6, T_Scon, T_Scon_DGRG, 368.7, hit, 2, 0
753, 6, T_Scon, T_Scon_DGRG, 356.1, hit, 2, 0
754, 6, T_Scon, T_Scon_DGRG, 375.5, hit, 2, 0
755, 6, T_Sinc, T_Sinc_UGRG, 287.0, hit, 2, 0
756, 6, T_Sinc, T_Sinc_UGRG, 342.4, hit, 2, 0
757, 6, T_Scon, T_Scon_URLR, 377.6, hit, 1, 0
758, 6, T_Scon, T_Scon_URLR, 297.0, hit, 1, 0
759, 6, T_Scon, T_Scon_URLR, 260.4, hit, 1, 0
760, 6, T_Sinc, T_Sinc_DRLR, 303.9, hit, 1, 0
761, 6, T_Scon, T_Scon_URLR, 299.3, hit, 1, 0
762, 6, T_Sinc, T_Sinc_UGRG, 406.7, hit, 2, 0
763, 6, T_Scon, T_Scon_DGRG, 302.1, hit, 2, 0
764, 6, T_Scon, T_Scon_DGRG, 313.6, hit, 2, 0
765, 6, T_Scon, T_Scon_URLR, 457.0, hit, 1, 0
766, 6, T_Sinc, T_Sinc_UGRG, 436.5, incorrect, 1, 1
767, 6, T_Scon, T_Scon_URLR, 343.9, hit, 1, 0
768, 6, T_Sinc, T_Sinc_DRLR, 363.3, hit, 1, 0
769, 6, T_Scon, T_Scon_URLR, 310.8, hit, 1, 0
770, 6, T_Scon, T_Scon_URLR, 326.2, hit, 1, 0
771, 6, T_Scon, T_Scon_URLR, 305.7, hit, 1, 0
772, 6, T_Scon, T_Scon_URLR, 377.1, hit, 1, 0
773, 6, T_Sinc, T_Sinc_DRLR, 720.5, hit, 1, 2
774, 6, T_Scon, T_Scon_DGRG, 412.0, hit, 2, 0
775, 6, T_Scon, T_Scon_URLR, 335.4, hit, 1, 0
776, 6, T_Scon, T_Scon_URLR, 682.9, incorrect, 2, 1
777, 6, T_Scon, T_Scon_DGRG, 486.3, hit, 2, 0
778, 6, T_Sinc, T_Sinc_DRLR, 525.7, hit, 1, 0
779, 6, T_Scon, T_Scon_DGRG, 421.2, hit, 2, 0
780, 6, T_Sinc, T_Sinc_DRLR, 480.6, hit, 1, 0
781, 6, T_Scon, T_Scon_URLR, 400.1, hit, 1, 0
782, 6, T_Scon, T_Scon_DGRG, 419.5, hit, 2, 0
783, 6, T_Scon, T_Scon_DGRG, 430.9, hit, 2, 0
784, 6, T_Scon, T_Scon_URLR, 346.3, hit, 1, 0
785, 6, T_Scon, T_Scon_DGRG, 377.8, hit, 2, 0
786, 6, T_Sinc, T_Sinc_DRLR, 445.2, incorrect, 2, 1
787, 6, T_Scon, T_Scon_URLR, 416.7, hit, 1, 0
788, 6, T_Sinc, T_Sinc_DRLR, 348.1, hit, 1, 0
789, 6, T_Scon, T_Scon_URLR, 311.5, hit, 1, 0
790, 6, T_Sinc, T_Sinc_UGRG, 354.9, hit, 2, 0
791, 6, T_Scon, T_Scon_URLR, 362.4, hit, 1, 0
792, 6, T_Sinc, T_Sinc_UGRG, 541.8, hit, 2, 0
793, 6, T_Sinc, T_Sinc_DRLR, 513.0, hit, 1, 0
794, 6, T_Scon, T_Scon_DGRG, 380.5, hit, 2, 0
795, 6, T_Scon, T_Scon_URLR, 395.8, hit, 1, 0
796, 6, T_Scon, T_Scon_URLR, 399.3, hit, 1, 0
797, 6, T_Scon, T_Scon_DGRG, 334.7, hit, 2, 0
798, 6, T_Sinc, T_Sinc_DRLR, 514.2, hit, 1, 0
799, 6, T_Scon, T_Scon_DGRG, 469.6, hit, 2, 0
800, 6, T_Scon, T_Scon_DGRG, 505.0, hit, 2, 0
801, 6, T_Scon, T_Scon_URLR, 504.5, hit, 1, 0
802, 6, T_Scon, T_Scon_DGRG, 407.9, hit, 2, 0
803, 6, T_Scon, T_Scon_DGRG, 499.4, hit, 2, 0
804, 6, T_Sinc, T_Sinc_UGRG, 938.8, incorrect, 1, 1
805, 6, T_Scon, T_Scon_URLR, 310.2, hit, 1, 0
806, 6, T_Sinc, T_Sinc_UGRG, 457.6, hit, 2, 0
807, 6, T_Scon, T_Scon_DGRG, 781.1, hit, 2, 2
808, 6, T_Sinc, T_Sinc_UGRG, 384.6, hit, 2, 0
809, 6, T_Scon, T_Scon_URLR, 367.9, hit, 1, 0
810, 6, T_Scon, T_Scon_DGRG, 363.4, hit, 2, 0
811, 6, T_Scon, T_Scon_URLR, 466.8, hit, 1, 0
812, 6, T_Scon, T_Scon_DGRG, 322.3, hit, 2, 0
813, 6, T_Scon, T_Scon_DGRG, 405.7, hit, 2, 0
814, 6, T_Scon, T_Scon_URLR, 289.1, hit, 1, 0
815, 6, T_Scon, T_Scon_DGRG, 332.5, hit, 2, 0
816, 6, T_Sinc, T_Sinc_UGRG, 468.0, hit, 2, 0
817, 6, T_Sinc, T_Sinc_DRLR, 415.5, hit, 1, 0
818, 6, T_Scon, T_Scon_URLR, 318.9, hit, 1, 0
819, 6, T_Scon, T_Scon_DGRG, 382.4, hit, 2, 0
820, 6, T_Scon, T_Scon_URLR, 429.8, hit, 1, 0
821, 6, T_Scon, T_Scon_URLR, 361.2, hit, 1, 0
822, 6, T_Scon, T_Scon_URLR, 268.6, hit, 1, 0
823, 6, T_Scon, T_Scon_DGRG, 328.1, hit, 2, 0
824, 6, T_Scon, T_Scon_URLR, 387.6, hit, 1, 0
825, 6, T_Scon, T_Scon_URLR, 311.0, hit, 1, 0
826, 6, T_Scon, T_Scon_URLR, 262.4, hit, 1, 0
827, 6, T_Sinc, T_Sinc_DRLR, 369.8, hit, 1, 0
828, 6, T_Scon, T_Scon_DGRG, 369.3, hit, 2, 0
829, 6, T_Scon, T_Scon_DGRG, 492.4, hit, 2, 0
830, 6, T_Scon, T_Scon_URLR, 423.9, hit, 1, 0
831, 6, T_Scon, T_Scon_DGRG, 423.3, hit, 2, 0
832, 6, T_Scon, T_Scon_DGRG, 538.7, hit, 2, 0
833, 6, T_Scon, T_Scon_DGRG, 274.2, hit, 2, 0
834, 6, T_Scon, T_Scon_DGRG, 317.6, hit, 2, 0
835, 6, T_Scon, T_Scon_URLR, 289.1, hit, 1, 0
836, 6, T_Scon, T_Scon_DGRG, 380.6, hit, 2, 0
837, 6, T_Scon, T_Scon_URLR, 251.9, hit, 1, 0
838, 6, T_Scon, T_Scon_DGRG, 747.4, hit, 2, 2
839, 6, T_Scon, T_Scon_URLR, 470.8, hit, 1, 0
840, 6, T_Scon, T_Scon_DGRG, 418.3, hit, 2, 0
841, 6, T_Scon, T_Scon_DGRG, 445.7, hit, 2, 0
842, 6, T_Scon, T_Scon_URLR, 465.2, hit, 1, 0
843, 6, T_Scon, T_Scon_URLR, 356.6, hit, 1, 0
844, 6, T_Sinc, T_Sinc_UGRG, 392.0, hit, 2, 0
845, 6, T_Scon, T_Scon_DGRG, 467.5, hit, 2, 0
846, 6, T_Sinc, T_Sinc_DRLR, 358.9, hit, 1, 0
847, 6, T_Scon, T_Scon_URLR, 262.3, hit, 1, 0
848, 6, T_Scon, T_Scon_URLR, 325.7, hit, 1, 0
849, 6, T_Scon, T_Scon_URLR, 281.2, hit, 1, 0
850, 6, T_Scon, T_Scon_DGRG, 380.6, hit, 2, 0
851, 6, T_Scon, T_Scon_URLR, 320.1, hit, 1, 0
852, 6, T_Sinc, T_Sinc_DRLR, 419.5, hit, 1, 0
853, 6, T_Scon, T_Scon_URLR, 366.9, hit, 1, 0
854, 6, T_Scon, T_Scon_DGRG, 434.3, hit, 2, 0
855, 6, T_Scon, T_Scon_DGRG, 449.8, hit, 2, 0
856, 6, T_Scon, T_Scon_URLR, 381.3, hit, 1, 0
857, 6, T_Scon, T_Scon_URLR, 384.6, hit, 1, 0
858, 6, T_Scon, T_Scon_DGRG, 428.1, hit, 2, 0
859, 6, T_Scon, T_Scon_DGRG, 355.5, hit, 2, 0
860, 6, T_Scon, T_Scon_DGRG, 347.0, hit, 2, 0
861, 6, T_Sinc, T_Sinc_DRLR, 322.4, hit, 1, 0
862, 6, T_Sinc, T_Sinc_DRLR, 597.9, hit, 1, 0
863, 6, T_Scon, T_Scon_DGRG, 401.3, hit, 2, 0
864, 6, T_Scon, T_Scon_DGRG, 372.7, hit, 2, 0
865, 7, T_Sinc, T_Sinc_UGRG, 353.8, hit, 2, 0
866, 7, T_Scon, T_Scon_URLR, 477.3, hit, 1, 0
867, 7, T_Sinc, T_Sinc_UGRG, 384.6, hit, 2, 0
868, 7, T_Scon, T_Scon_DGRG, 420.1, hit, 2, 0
869, 7, T_Sinc, T_Sinc_UGRG, 291.5, hit, 2, 0
870, 7, T_Sinc, T_Sinc_UGRG, 338.9, hit, 2, 0
871, 7, T_Sinc, T_Sinc_UGRG, 250.3, hit, 2, 0
872, 7, T_Sinc, T_Sinc_UGRG, 333.8, hit, 2, 0
873, 7, T_Sinc, T_Sinc_DRLR, 345.2, hit, 1, 0
874, 7, T_Sinc, T_Sinc_DRLR, 284.7, hit, 1, 0
875, 7, T_Sinc, T_Sinc_DRLR, 236.0, hit, 1, 0
876, 7, T_Sinc, T_Sinc_UGRG, 359.5, hit, 2, 0
877, 7, T_Sinc, T_Sinc_DRLR, 451.0, hit, 1, 0
878, 7, T_Sinc, T_Sinc_DRLR, 502.4, hit, 1, 0
879, 7, T_Scon, T_Scon_DGRG, 433.9, hit, 2, 0
880, 7, T_Sinc, T_Sinc_DRLR, 433.3, hit, 1, 0
881, 7, T_Sinc, T_Sinc_DRLR, 528.7, hit, 1, 0
882, 7, T_Sinc, T_Sinc_DRLR, 704.1, hit, 1, 2
883, 7, T_Scon, T_Scon_URLR, 299.6, hit, 1, 0
884, 7, T_Sinc, T_Sinc_DRLR, 387.0, hit, 1, 0
885, 7, T_Scon, T_Scon_DGRG, 322.5, hit, 2, 0
886, 7, T_Sinc, T_Sinc_DRLR, 469.8, hit, 1, 0
887, 7, T_Sinc, T_Sinc_DRLR, 1061.3, hit, 1, 2
888, 7, T_Sinc, T_Sinc_DRLR, 352.8, hit, 1, 0
889, 7, T_Sinc, T_Sinc_DRLR, 308.2, hit, 1, 0
890, 7, T_Sinc, T_Sinc_UGRG, 331.7, hit, 2, 0
891, 7, T_Sinc, T_Sinc_DRLR, 383.1, hit, 1, 0
892, 7, T_Sinc, T_Sinc_DRLR, 442.6, hit, 1, 0
893, 7, T_Sinc, T_Sinc_DRLR, 393.9, hit, 1, 0
894, 7, T_Sinc, T_Sinc_DRLR, 369.4, hit, 1, 0
895, 7, T_Sinc, T_Sinc_UGRG, 284.8, hit, 2, 0
896, 7, T_Scon, T_Scon_DGRG, 328.3, hit, 2, 0
897, 7, T_Sinc, T_Sinc_DRLR, 435.6, hit, 1, 0
898, 7, T_Sinc, T_Sinc_DRLR, 323.1, hit, 1, 0
899, 7, T_Sinc, T_Sinc_DRLR, 302.6, hit, 1, 0
900, 7, T_Sinc, T_Sinc_UGRG, 374.0, hit, 2, 0
901, 7, T_Sinc, T_Sinc_UGRG, 381.2, hit, 2, 0
902, 7, T_Sinc, T_Sinc_UGRG, 372.6, hit, 2, 0
903, 7, T_Scon, T_Scon_DGRG, 424.0, hit, 2, 0
904, 7, T_Sinc, T_Sinc_UGRG, 307.5, hit, 2, 0
905, 7, T_Sinc, T_Sinc_DRLR, 422.9, hit, 1, 0
906, 7, T_Sinc, T_Sinc_UGRG, 374.4, hit, 2, 0
907, 7, T_Sinc, T_Sinc_UGRG, 405.8, hit, 2, 0
908, 7, T_Sinc, T_Sinc_UGRG, 297.2, hit, 2, 0
909, 7, T_Scon, T_Scon_DGRG, 380.6, hit, 2, 0
910, 7, T_Sinc, T_Sinc_DRLR, 420.1, hit, 1, 0
911, 7, T_Sinc, T_Sinc_UGRG, 303.5, hit, 2, 0
912, 7, T_Sinc, T_Sinc_UGRG, 415.0, incorrect, 1, 1
913, 7, T_Sinc, T_Sinc_UGRG, 306.4, hit, 2, 0
914, 7, T_Scon, T_Scon_DGRG, 405.8, hit, 2, 0
915, 7, T_Sinc, T_Sinc_UGRG, 249.3, hit, 2, 0
916, 7, T_Scon, T_Scon_DGRG, 328.7, hit, 2, 0
917, 7, T_Sinc, T_Sinc_UGRG, 396.2, hit, 2, 0
918, 7, T_Sinc, T_Sinc_UGRG, 303.6, hit, 2, 0
919, 7, T_Sinc, T_Sinc_UGRG, 315.0, hit, 2, 0
920, 7, T_Sinc, T_Sinc_DRLR, 318.5, hit, 1, 0
921, 7, T_Sinc, T_Sinc_DRLR, 317.9, hit, 1, 0
922, 7, T_Sinc, T_Sinc_UGRG, 333.3, hit, 2, 0
923, 7, T_Sinc, T_Sinc_UGRG, 332.7, hit, 2, 0
924, 7, T_Sinc, T_Sinc_UGRG, 376.2, hit, 2, 0
925, 7, T_Sinc, T_Sinc_UGRG, 339.7, hit, 2, 0
926, 7, T_Sinc, T_Sinc_UGRG, 303.1, hit, 2, 0
927, 7, T_Sinc, T_Sinc_DRLR, 342.6, hit, 1, 0
928, 7, T_Sinc, T_Sinc_DRLR, 285.9, hit, 1, 0
929, 7, T_Sinc, T_Sinc_DRLR, 385.4, hit, 1, 0
930, 7, T_Sinc, T_Sinc_DRLR, 296.9, hit, 1, 0
931, 7, T_Scon, T_Scon_URLR, 372.3, hit, 1, 0
932, 7, T_Sinc, T_Sinc_DRLR, 343.8, hit, 1, 0
933, 7, T_Sinc, T_Sinc_DRLR, 331.2, hit, 1, 0
934, 7, T_Sinc, T_Sinc_UGRG, 350.6, hit, 2, 0
935, 7, T_Sinc, T_Sinc_UGRG, 250.1, hit, 2, 0
936, 7, T_Sinc, T_Sinc_UGRG, 357.5, hit, 2, 0
937, 7, T_Scon, T_Scon_DGRG, 0.2, miss, 1931882, 1
938, 7, T_Sinc, T_Sinc_DRLR, 1400.1, incorrect, 2, 1
939, 7, T_Sinc, T_Sinc_DRLR, 303.5, incorrect, 2, 1
940, 7, T_Scon, T_Scon_DGRG, 331.0, hit, 2, 0
941, 7, T_Sinc, T_Sinc_UGRG, 862.4, incorrect, 1, 1
942, 7, T_Sinc, T_Sinc_DRLR, 417.9, hit, 1, 0
943, 7, T_Sinc, T_Sinc_UGRG, 481.3, hit, 2, 0
944, 7, T_Scon, T_Scon_URLR, 668.8, hit, 1, 2
945, 7, T_Sinc, T_Sinc_UGRG, 464.1, hit, 2, 0
946, 7, T_Sinc, T_Sinc_UGRG, 391.6, hit, 2, 0
947, 7, T_Sinc, T_Sinc_UGRG, 355.0, hit, 2, 0
948, 7, T_Sinc, T_Sinc_DRLR, 294.5, hit, 1, 0
949, 7, T_Sinc, T_Sinc_UGRG, 457.9, hit, 2, 0
950, 7, T_Sinc, T_Sinc_UGRG, 385.3, hit, 2, 0
951, 7, T_Scon, T_Scon_URLR, 452.8, hit, 1, 0
952, 7, T_Sinc, T_Sinc_DRLR, 344.2, hit, 1, 0
953, 7, T_Sinc, T_Sinc_UGRG, 419.7, hit, 2, 0
954, 7, T_Sinc, T_Sinc_DRLR, 363.1, hit, 1, 0
955, 7, T_Sinc, T_Sinc_DRLR, 346.5, hit, 1, 0
956, 7, T_Sinc, T_Sinc_DRLR, 374.0, hit, 1, 0
957, 7, T_Sinc, T_Sinc_DRLR, 313.4, hit, 1, 0
958, 7, T_Sinc, T_Sinc_UGRG, 348.9, hit, 2, 0
959, 7, T_Sinc, T_Sinc_DRLR, 472.3, hit, 1, 0
960, 7, T_Sinc, T_Sinc_DRLR, 419.7, hit, 1, 0
961, 7, T_Sinc, T_Sinc_DRLR, 303.1, hit, 1, 0
962, 7, T_Sinc, T_Sinc_UGRG, 426.6, hit, 2, 0
963, 7, T_Sinc, T_Sinc_DRLR, 422.1, hit, 1, 0
964, 7, T_Scon, T_Scon_DGRG, 521.4, hit, 2, 0
965, 7, T_Scon, T_Scon_DGRG, 600.9, hit, 2, 0
966, 7, T_Sinc, T_Sinc_UGRG, 384.3, hit, 2, 0
967, 7, T_Sinc, T_Sinc_UGRG, 499.8, hit, 2, 0
968, 7, T_Scon, T_Scon_DGRG, 363.2, hit, 2, 0
969, 7, T_Sinc, T_Sinc_DRLR, 390.7, hit, 1, 0
970, 7, T_Scon, T_Scon_URLR, 354.1, hit, 1, 0
971, 7, T_Scon, T_Scon_DGRG, 377.5, hit, 2, 0
972, 7, T_Scon, T_Scon_URLR, 457.0, hit, 1, 0
973, 7, T_Scon, T_Scon_URLR, 460.1, hit, 1, 0
974, 7, T_Sinc, T_Sinc_UGRG, 431.6, hit, 2, 0
975, 7, T_Scon, T_Scon_URLR, 450.9, hit, 1, 0
976, 7, T_Scon, T_Scon_URLR, 342.4, hit, 1, 0
977, 7, T_Sinc, T_Sinc_UGRG, 409.8, hit, 2, 0
978, 7, T_Scon, T_Scon_DGRG, 361.3, hit, 2, 0
979, 7, T_Sinc, T_Sinc_UGRG, 404.7, hit, 2, 0
980, 7, T_Sinc, T_Sinc_DRLR, 332.2, hit, 1, 0
981, 7, T_Sinc, T_Sinc_DRLR, 271.6, hit, 1, 0
982, 7, T_Sinc, T_Sinc_DRLR, 371.0, hit, 1, 0
983, 7, T_Scon, T_Scon_URLR, 374.5, hit, 1, 0
984, 7, T_Sinc, T_Sinc_UGRG, 549.9, hit, 2, 0
985, 7, T_Sinc, T_Sinc_UGRG, 385.4, hit, 2, 0
986, 7, T_Scon, T_Scon_DGRG, 316.8, hit, 2, 0
987, 7, T_Sinc, T_Sinc_DRLR, 428.2, hit, 1, 0
988, 7, T_Scon, T_Scon_URLR, 311.7, hit, 1, 0
989, 7, T_Sinc, T_Sinc_DRLR, 303.1, hit, 1, 0
990, 7, T_Scon, T_Scon_URLR, 338.6, hit, 1, 0
991, 7, T_Scon, T_Scon_URLR, 281.9, hit, 1, 0
992, 7, T_Sinc, T_Sinc_DRLR, 317.4, hit, 1, 0
993, 7, T_Sinc, T_Sinc_UGRG, 352.8, hit, 2, 0
994, 7, T_Scon, T_Scon_URLR, 464.3, hit, 1, 0
995, 7, T_Scon, T_Scon_URLR, 291.8, hit, 1, 0
996, 7, T_Scon, T_Scon_URLR, 351.2, hit, 1, 0
997, 7, T_Sinc, T_Sinc_UGRG, 410.6, hit, 2, 0
998, 7, T_Sinc, T_Sinc_DRLR, 342.0, hit, 1, 0
999, 7, T_Scon, T_Scon_DGRG, 529.5, hit, 2, 0
1000, 7, T_Scon, T_Scon_DGRG, 520.9, hit, 2, 0
1001, 7, T_Scon, T_Scon_URLR, 340.3, hit, 1, 0
1002, 7, T_Sinc, T_Sinc_DRLR, 331.8, hit, 1, 0
1003, 7, T_Sinc, T_Sinc_UGRG, 463.2, hit, 2, 0
1004, 7, T_Sinc, T_Sinc_UGRG, 426.7, hit, 2, 0
1005, 7, T_Sinc, T_Sinc_DRLR, 350.1, hit, 1, 0
1006, 7, T_Sinc, T_Sinc_UGRG, 585.6, hit, 2, 0
1007, 7, T_Sinc, T_Sinc_DRLR, 636.9, hit, 1, 0
1008, 7, T_Sinc, T_Sinc_UGRG, 440.4, hit, 2, 0
1009, 8, T_Sinc, T_Sinc_UGRG, 457.9, hit, 2, 0
1010, 8, T_Sinc, T_Sinc_UGRG, 257.3, hit, 2, 0
1011, 8, T_Sinc, T_Sinc_DRLR, 424.8, hit, 1, 0
1012, 8, T_Scon, T_Scon_URLR, 288.1, hit, 1, 0
1013, 8, T_Scon, T_Scon_DGRG, 387.6, hit, 2, 0
1014, 8, T_Sinc, T_Sinc_DRLR, 475.0, hit, 1, 0
1015, 8, T_Sinc, T_Sinc_UGRG, 342.5, hit, 2, 0
1016, 8, T_Sinc, T_Sinc_DRLR, 433.9, hit, 1, 0
1017, 8, T_Scon, T_Scon_URLR, 325.3, hit, 1, 0
1018, 8, T_Sinc, T_Sinc_UGRG, 360.8, hit, 2, 0
1019, 8, T_Sinc, T_Sinc_DRLR, 436.2, hit, 1, 0
1020, 8, T_Sinc, T_Sinc_UGRG, 383.6, hit, 2, 0
1021, 8, T_Sinc, T_Sinc_DRLR, 403.1, hit, 1, 0
1022, 8, T_Sinc, T_Sinc_UGRG, 558.5, hit, 2, 0
1023, 8, T_Sinc, T_Sinc_DRLR, 418.0, hit, 1, 0
1024, 8, T_Sinc, T_Sinc_DRLR, 325.4, hit, 1, 0
1025, 8, T_Sinc, T_Sinc_UGRG, 344.8, hit, 2, 0
1026, 8, T_Scon, T_Scon_URLR, 288.2, hit, 1, 0
1027, 8, T_Scon, T_Scon_URLR, 419.7, hit, 1, 0
1028, 8, T_Sinc, T_Sinc_UGRG, 455.1, hit, 2, 0
1029, 8, T_Scon, T_Scon_DGRG, 690.5, hit, 2, 2
1030, 8, T_Sinc, T_Sinc_DRLR, 394.0, hit, 1, 0
1031, 8, T_Sinc, T_Sinc_UGRG, 533.5, hit, 2, 0
1032, 8, T_Sinc, T_Sinc_UGRG, 420.9, hit, 2, 0
1033, 8, T_Sinc, T_Sinc_UGRG, 344.3, hit, 2, 0
1034, 8, T_Sinc, T_Sinc_UGRG, 295.8, hit, 2, 0
1035, 8, T_Scon, T_Scon_DGRG, 403.2, hit, 2, 0
1036, 8, T_Sinc, T_Sinc_UGRG, 294.7, hit, 2, 0
1037, 8, T_Sinc, T_Sinc_DRLR, 414.0, hit, 1, 0
1038, 8, T_Sinc, T_Sinc_UGRG, 441.5, hit, 2, 0
1039, 8, T_Scon, T_Scon_DGRG, 445.0, hit, 2, 0
1040, 8, T_Sinc, T_Sinc_DRLR, 472.4, hit, 1, 0
1041, 8, T_Sinc, T_Sinc_DRLR, 363.8, hit, 1, 0
1042, 8, T_Sinc, T_Sinc_DRLR, 359.2, hit, 1, 0
1043, 8, T_Sinc, T_Sinc_UGRG, 350.7, hit, 2, 0
1044, 8, T_Scon, T_Scon_URLR, 398.2, hit, 1, 0
1045, 8, T_Scon, T_Scon_URLR, 461.3, hit, 1, 0
1046, 8, T_Sinc, T_Sinc_UGRG, 344.7, hit, 2, 0
1047, 8, T_Sinc, T_Sinc_UGRG, 244.1, hit, 2, 0
1048, 8, T_Sinc, T_Sinc_UGRG, 303.6, hit, 2, 0
1049, 8, T_Sinc, T_Sinc_DRLR, 335.0, hit, 1, 0
1050, 8, T_Scon, T_Scon_URLR, 250.5, hit, 1, 0
1051, 8, T_Scon, T_Scon_DGRG, 386.0, hit, 2, 0
1052, 8, T_Sinc, T_Sinc_UGRG, 369.4, hit, 2, 0
1053, 8, T_Scon, T_Scon_URLR, 364.8, hit, 1, 0
1054, 8, T_Sinc, T_Sinc_UGRG, 460.2, hit, 2, 0
1055, 8, T_Scon, T_Scon_DGRG, 467.7, hit, 2, 0
1056, 8, T_Scon, T_Scon_DGRG, 303.1, hit, 2, 0
1057, 8, T_Scon, T_Scon_DGRG, 394.6, hit, 2, 0
1058, 8, T_Sinc, T_Sinc_DRLR, 389.9, hit, 1, 0
1059, 8, T_Scon, T_Scon_DGRG, 561.4, hit, 2, 0
1060, 8, T_Sinc, T_Sinc_DRLR, 476.9, hit, 1, 0
1061, 8, T_Sinc, T_Sinc_DRLR, 704.3, hit, 1, 2
1062, 8, T_Sinc, T_Sinc_UGRG, 355.8, hit, 2, 0
1063, 8, T_Sinc, T_Sinc_UGRG, 355.2, hit, 2, 0
1064, 8, T_Sinc, T_Sinc_UGRG, 350.6, hit, 2, 0
1065, 8, T_Sinc, T_Sinc_UGRG, 322.0, hit, 2, 0
1066, 8, T_Scon, T_Scon_URLR, 365.5, hit, 1, 0
1067, 8, T_Sinc, T_Sinc_DRLR, 476.9, hit, 1, 0
1068, 8, T_Sinc, T_Sinc_UGRG, 376.3, hit, 2, 0
1069, 8, T_Sinc, T_Sinc_DRLR, 371.8, hit, 1, 0
1070, 8, T_Sinc, T_Sinc_DRLR, 315.2, hit, 1, 0
1071, 8, T_Sinc, T_Sinc_DRLR, 358.7, hit, 1, 0
1072, 8, T_Sinc, T_Sinc_DRLR, 278.1, hit, 1, 0
1073, 8, T_Scon, T_Scon_URLR, 421.6, hit, 1, 0
1074, 8, T_Sinc, T_Sinc_UGRG, 832.9, hit, 2, 2
1075, 8, T_Sinc, T_Sinc_DRLR, 420.4, hit, 1, 0
1076, 8, T_Scon, T_Scon_URLR, 471.8, hit, 1, 0
1077, 8, T_Sinc, T_Sinc_UGRG, 379.3, hit, 2, 0
1078, 8, T_Sinc, T_Sinc_DRLR, 422.8, hit, 1, 0
1079, 8, T_Sinc, T_Sinc_UGRG, 542.1, hit, 2, 0
1080, 8, T_Sinc, T_Sinc_UGRG, 273.6, hit, 2, 0
1081, 8, T_Scon, T_Scon_URLR, 412.8, hit, 1, 0
1082, 8, T_Sinc, T_Sinc_UGRG, 392.2, hit, 2, 0
1083, 8, T_Scon, T_Scon_DGRG, 323.6, hit, 2, 0
1084, 8, T_Sinc, T_Sinc_UGRG, 383.1, hit, 2, 0
1085, 8, T_Sinc, T_Sinc_DRLR, 338.5, hit, 1, 0
1086, 8, T_Sinc, T_Sinc_UGRG, 405.9, hit, 2, 0
1087, 8, T_Sinc, T_Sinc_DRLR, 325.4, hit, 1, 0
1088, 8, T_Scon, T_Scon_DGRG, 328.8, hit, 2, 0
1089, 8, T_Sinc, T_Sinc_UGRG, 412.3, hit, 2, 0
1090, 8, T_Sinc, T_Sinc_UGRG, 295.6, hit, 2, 0
1091, 8, T_Sinc, T_Sinc_UGRG, 335.1, hit, 2, 0
1092, 8, T_Sinc, T_Sinc_DRLR, 366.5, hit, 1, 0
1093, 8, T_Sinc, T_Sinc_DRLR, 398.0, hit, 1, 0
1094, 8, T_Sinc, T_Sinc_DRLR, 329.5, hit, 1, 0
1095, 8, T_Sinc, T_Sinc_DRLR, 260.8, hit, 1, 0
1096, 8, T_Sinc, T_Sinc_UGRG, 336.3, hit, 2, 0
1097, 8, T_Sinc, T_Sinc_UGRG, 411.7, hit, 2, 0
1098, 8, T_Sinc, T_Sinc_DRLR, 167.2, hit, 1, 0
1099, 8, T_Scon, T_Scon_DGRG, 386.6, hit, 2, 0
1100, 8, T_Sinc, T_Sinc_UGRG, 318.0, hit, 2, 0
1101, 8, T_Sinc, T_Sinc_DRLR, 385.4, hit, 1, 0
1102, 8, T_Scon, T_Scon_DGRG, 404.9, hit, 2, 0
1103, 8, T_Sinc, T_Sinc_DRLR, 416.4, hit, 1, 0
1104, 8, T_Sinc, T_Sinc_DRLR, 275.8, hit, 1, 0
1105, 8, T_Scon, T_Scon_DGRG, 471.3, hit, 2, 0
1106, 8, T_Sinc, T_Sinc_DRLR, 370.6, hit, 1, 0
1107, 8, T_Sinc, T_Sinc_UGRG, 350.1, hit, 2, 0
1108, 8, T_Sinc, T_Sinc_UGRG, 365.5, hit, 2, 0
1109, 8, T_Sinc, T_Sinc_UGRG, 369.0, hit, 2, 0
1110, 8, T_Sinc, T_Sinc_DRLR, 340.3, hit, 1, 0
1111, 8, T_Sinc, T_Sinc_DRLR, 339.8, hit, 1, 0
1112, 8, T_Sinc, T_Sinc_DRLR, 267.3, hit, 1, 0
1113, 8, T_Sinc, T_Sinc_DRLR, 266.7, hit, 1, 0
1114, 8, T_Sinc, T_Sinc_UGRG, 270.2, hit, 2, 0
1115, 8, T_Sinc, T_Sinc_DRLR, 381.5, hit, 1, 0
1116, 8, T_Scon, T_Scon_URLR, 381.0, hit, 1, 0
1117, 8, T_Sinc, T_Sinc_DRLR, 468.2, hit, 1, 0
1118, 8, T_Sinc, T_Sinc_UGRG, 407.6, hit, 2, 0
1119, 8, T_Sinc, T_Sinc_UGRG, 443.1, hit, 2, 0
1120, 8, T_Sinc, T_Sinc_DRLR, 338.5, hit, 1, 0
1121, 8, T_Sinc, T_Sinc_DRLR, 277.9, hit, 1, 0
1122, 8, T_Sinc, T_Sinc_DRLR, 281.3, hit, 1, 0
1123, 8, T_Sinc, T_Sinc_DRLR, 356.8, hit, 1, 0
1124, 8, T_Sinc, T_Sinc_UGRG, 284.2, hit, 2, 0
1125, 8, T_Sinc, T_Sinc_DRLR, 327.7, hit, 1, 0
1126, 8, T_Scon, T_Scon_DGRG, 479.1, hit, 2, 0
1127, 8, T_Sinc, T_Sinc_UGRG, 342.5, hit, 2, 0
1128, 8, T_Sinc, T_Sinc_UGRG, 289.9, hit, 2, 0
1129, 8, T_Sinc, T_Sinc_DRLR, 321.5, hit, 1, 0
1130, 8, T_Sinc, T_Sinc_DRLR, 300.9, hit, 1, 0
1131, 8, T_Sinc, T_Sinc_UGRG, 316.2, hit, 2, 0
1132, 8, T_Scon, T_Scon_URLR, 419.7, hit, 1, 0
1133, 8, T_Scon, T_Scon_URLR, 587.1, hit, 1, 0
1134, 8, T_Sinc, T_Sinc_UGRG, 358.6, hit, 2, 0
1135, 8, T_Sinc, T_Sinc_DRLR, 418.0, hit, 1, 0
1136, 8, T_Sinc, T_Sinc_UGRG, 349.5, incorrect, 1, 1
1137, 8, T_Sinc, T_Sinc_UGRG, 360.9, hit, 2, 0
1138, 8, T_Sinc, T_Sinc_DRLR, 520.3, hit, 1, 0
1139, 8, T_Sinc, T_Sinc_DRLR, 499.8, incorrect, 2, 1
1140, 8, T_Sinc, T_Sinc_UGRG, 363.2, hit, 2, 0
1141, 8, T_Sinc, T_Sinc_UGRG, 562.7, hit, 2, 0
1142, 8, T_Scon, T_Scon_DGRG, 410.1, hit, 2, 0
1143, 8, T_Scon, T_Scon_DGRG, 373.5, hit, 2, 0
1144, 8, T_Scon, T_Scon_URLR, 312.9, hit, 1, 0
1145, 8, T_Scon, T_Scon_URLR, 280.4, hit, 1, 0
1146, 8, T_Scon, T_Scon_URLR, 331.9, hit, 1, 0
1147, 8, T_Sinc, T_Sinc_DRLR, 327.3, hit, 1, 0
1148, 8, T_Sinc, T_Sinc_DRLR, 326.7, hit, 1, 0
1149, 8, T_Scon, T_Scon_DGRG, 290.1, hit, 2, 0
1150, 8, T_Sinc, T_Sinc_DRLR, 385.6, hit, 1, 0
1151, 8, T_Sinc, T_Sinc_DRLR, 301.1, hit, 1, 0
1152, 8, T_Sinc, T_Sinc_UGRG, 456.4, hit, 2, 0
1153, 9, T_Scon, T_Scon_DGRG, 494.2, hit, 2, 0
1154, 9, T_Scon, T_Scon_DGRG, 417.5, hit, 2, 0
1155, 9, T_Sinc, T_Sinc_DRLR, 473.0, hit, 1, 0
1156, 9, T_Sinc, T_Sinc_UGRG, 372.4, hit, 2, 0
1157, 9, T_Sinc, T_Sinc_DRLR, 427.8, hit, 1, 0
1158, 9, T_Scon, T_Scon_URLR, 367.2, hit, 1, 0
1159, 9, T_Sinc, T_Sinc_UGRG, 314.7, hit, 2, 0
1160, 9, T_Sinc, T_Sinc_UGRG, 410.1, hit, 2, 0
1161, 9, T_Sinc, T_Sinc_UGRG, 297.6, hit, 2, 0
1162, 9, T_Sinc, T_Sinc_DRLR, 353.0, hit, 1, 0
1163, 9, T_Sinc, T_Sinc_DRLR, 384.4, hit, 1, 0
1164, 9, T_Sinc, T_Sinc_UGRG, 363.9, hit, 2, 0
1165, 9, T_Sinc, T_Sinc_UGRG, 351.3, hit, 2, 0
1166, 9, T_Sinc, T_Sinc_DRLR, 334.8, hit, 1, 0
1167, 9, T_Sinc, T_Sinc_DRLR, 278.1, hit, 1, 0
1168, 9, T_Scon, T_Scon_DGRG, 441.6, hit, 2, 0
1169, 9, T_Sinc, T_Sinc_DRLR, 409.1, hit, 1, 0
1170, 9, T_Sinc, T_Sinc_UGRG, 468.5, hit, 2, 0
1171, 9, T_Scon, T_Scon_DGRG, 312.0, hit, 2, 0
1172, 9, T_Sinc, T_Sinc_DRLR, 371.4, hit, 1, 0
1173, 9, T_Sinc, T_Sinc_DRLR, 358.8, hit, 1, 0
1174, 9, T_Sinc, T_Sinc_DRLR, 354.2, hit, 1, 0
1175, 9, T_Sinc, T_Sinc_DRLR, 333.7, hit, 1, 0
1176, 9, T_Sinc, T_Sinc_UGRG, 313.2, hit, 2, 0
1177, 9, T_Sinc, T_Sinc_DRLR, 412.6, hit, 1, 0
1178, 9, T_Sinc, T_Sinc_DRLR, 596.0, hit, 1, 0
1179, 9, T_Sinc, T_Sinc_UGRG, 311.4, hit, 2, 0
1180, 9, T_Sinc, T_Sinc_DRLR, 446.9, hit, 1, 0
1181, 9, T_Sinc, T_Sinc_UGRG, 378.3, hit, 2, 0
1182, 9, T_Sinc, T_Sinc_UGRG, 393.8, hit, 2, 0
1183, 9, T_Sinc, T_Sinc_UGRG, 345.1, hit, 2, 0
1184, 9, T_Sinc, T_Sinc_UGRG, 620.6, hit, 2, 0
1185, 9, T_Sinc, T_Sinc_UGRG, 284.1, hit, 2, 0
1186, 9, T_Sinc, T_Sinc_DRLR, 411.5, hit, 1, 0
1187, 9, T_Sinc, T_Sinc_DRLR, 502.9, hit, 1, 0
1188, 9, T_Sinc, T_Sinc_UGRG, 346.3, hit, 2, 0
1189, 9, T_Sinc, T_Sinc_UGRG, 501.6, hit, 2, 0
1190, 9, T_Scon, T_Scon_URLR, 457.0, hit, 1, 0
1191, 9, T_Sinc, T_Sinc_UGRG, 384.4, hit, 2, 0
1192, 9, T_Sinc, T_Sinc_DRLR, 379.9, hit, 1, 0
1193, 9, T_Sinc, T_Sinc_DRLR, 339.3, hit, 1, 0
1194, 9, T_Scon, T_Scon_URLR, 462.7, hit, 1, 0
1195, 9, T_Sinc, T_Sinc_DRLR, 286.1, hit, 1, 0
1196, 9, T_Sinc, T_Sinc_DRLR, 265.7, hit, 1, 0
1197, 9, T_Scon, T_Scon_DGRG, 269.0, hit, 2, 0
1198, 9, T_Sinc, T_Sinc_UGRG, 316.5, hit, 2, 0
1199, 9, T_Sinc, T_Sinc_UGRG, 663.9, hit, 2, 0
1200, 9, T_Sinc, T_Sinc_DRLR, 387.3, hit, 1, 0
1201, 9, T_Scon, T_Scon_DGRG, 398.8, hit, 2, 0
1202, 9, T_Sinc, T_Sinc_DRLR, 258.3, hit, 1, 0
1203, 9, T_Scon, T_Scon_DGRG, 333.7, hit, 2, 0
1204, 9, T_Sinc, T_Sinc_UGRG, 265.1, hit, 2, 0
1205, 9, T_Sinc, T_Sinc_UGRG, 312.5, hit, 2, 0
1206, 9, T_Sinc, T_Sinc_UGRG, 244.0, hit, 2, 0
1207, 9, T_Sinc, T_Sinc_UGRG, 327.4, hit, 2, 0
1208, 9, T_Sinc, T_Sinc_UGRG, 306.9, hit, 2, 0
1209, 9, T_Sinc, T_Sinc_UGRG, 318.3, hit, 2, 0
1210, 9, T_Sinc, T_Sinc_UGRG, 225.7, hit, 2, 0
1211, 9, T_Scon, T_Scon_URLR, 405.1, hit, 1, 0
1212, 9, T_Scon, T_Scon_DGRG, 344.6, incorrect, 1, 1
1213, 9, T_Sinc, T_Sinc_DRLR, 348.1, hit, 1, 0
1214, 9, T_Sinc, T_Sinc_UGRG, 351.4, hit, 2, 0
1215, 9, T_Scon, T_Scon_DGRG, 459.0, hit, 2, 0
1216, 9, T_Sinc, T_Sinc_UGRG, 382.3, hit, 2, 0
1217, 9, T_Sinc, T_Sinc_DRLR, 345.8, hit, 1, 0
1218, 9, T_Scon, T_Scon_URLR, 309.2, hit, 1, 0
1219, 9, T_Sinc, T_Sinc_UGRG, 248.7, hit, 2, 0
1220, 9, T_Scon, T_Scon_URLR, 416.1, hit, 1, 0
1221, 9, T_Scon, T_Scon_DGRG, 379.5, hit, 2, 0
1222, 9, T_Sinc, T_Sinc_DRLR, 399.0, hit, 1, 0
1223, 9, T_Sinc, T_Sinc_UGRG, 290.4, hit, 2, 0
1224, 9, T_Sinc, T_Sinc_DRLR, 305.9, hit, 1, 0
1225, 9, T_Sinc, T_Sinc_UGRG, 525.0, hit, 2, 0
1226, 9, T_Sinc, T_Sinc_UGRG, 316.4, hit, 2, 0
1227, 9, T_Sinc, T_Sinc_DRLR, 279.9, hit, 1, 0
1228, 9, T_Sinc, T_Sinc_DRLR, 291.3, hit, 1, 0
1229, 9, T_Sinc, T_Sinc_DRLR, 266.8, hit, 1, 0
1230, 9, T_Scon, T_Scon_URLR, 342.2, hit, 1, 0
1231, 9, T_Sinc, T_Sinc_UGRG, 381.6, hit, 2, 0
1232, 9, T_Scon, T_Scon_URLR, 369.0, hit, 1, 0
1233, 9, T_Scon, T_Scon_DGRG, 536.5, hit, 2, 0
1234, 9, T_Sinc, T_Sinc_DRLR, 359.9, hit, 1, 0
1235, 9, T_Sinc, T_Sinc_DRLR, 251.4, hit, 1, 0
1236, 9, T_Sinc, T_Sinc_DRLR, 342.8, hit, 1, 0
1237, 9, T_Sinc, T_Sinc_DRLR, 362.2, hit, 1, 0
1238, 9, T_Scon, T_Scon_DGRG, 717.7, hit, 2, 2
1239, 9, T_Sinc, T_Sinc_DRLR, 353.1, hit, 1, 0
1240, 9, T_Sinc, T_Sinc_UGRG, 332.6, hit, 2, 0
1241, 9, T_Sinc, T_Sinc_DRLR, 359.9, hit, 1, 0
1242, 9, T_Scon, T_Scon_URLR, 363.4, hit, 1, 0
1243, 9, T_Scon, T_Scon_DGRG, 426.8, hit, 2, 0
1244, 9, T_Sinc, T_Sinc_DRLR, 358.3, hit, 1, 0
1245, 9, T_Sinc, T_Sinc_UGRG, 449.8, hit, 2, 0
1246, 9, T_Sinc, T_Sinc_DRLR, 405.2, hit, 1, 0
1247, 9, T_Sinc, T_Sinc_DRLR, 444.6, hit, 1, 0
1248, 9, T_Sinc, T_Sinc_UGRG, 344.0, hit, 2, 0
1249, 9, T_Sinc, T_Sinc_UGRG, 307.5, hit, 2, 0
1250, 9, T_Sinc, T_Sinc_UGRG, 398.9, hit, 2, 0
1251, 9, T_Sinc, T_Sinc_DRLR, 402.3, hit, 1, 0
1252, 9, T_Sinc, T_Sinc_UGRG, 529.8, hit, 2, 0
1253, 9, T_Scon, T_Scon_URLR, 685.2, hit, 1, 2
1254, 9, T_Sinc, T_Sinc_DRLR, 424.7, hit, 1, 0
1255, 9, T_Sinc, T_Sinc_DRLR, 348.1, hit, 1, 0
1256, 9, T_Sinc, T_Sinc_DRLR, 315.6, hit, 1, 0
1257, 9, T_Sinc, T_Sinc_UGRG, 414.9, hit, 2, 0
1258, 9, T_Scon, T_Scon_URLR, 346.4, hit, 1, 0
1259, 9, T_Scon, T_Scon_DGRG, 541.9, hit, 2, 0
1260, 9, T_Sinc, T_Sinc_DRLR, 389.3, hit, 1, 0
1261, 9, T_Sinc, T_Sinc_DRLR, 548.5, hit, 1, 0
1262, 9, T_Sinc, T_Sinc_UGRG, 415.9, hit, 2, 0
1263, 9, T_Sinc, T_Sinc_DRLR, 323.3, hit, 1, 0
1264, 9, T_Sinc, T_Sinc_UGRG, 270.7, hit, 2, 0
1265, 9, T_Scon, T_Scon_URLR, 330.2, incorrect, 2, 1
1266, 9, T_Scon, T_Scon_DGRG, 497.7, hit, 2, 0
1267, 9, T_Sinc, T_Sinc_UGRG, 461.1, hit, 2, 0
1268, 9, T_Scon, T_Scon_DGRG, 360.5, hit, 2, 0
1269, 9, T_Sinc, T_Sinc_DRLR, 379.9, hit, 1, 0
1270, 9, T_Sinc, T_Sinc_DRLR, 347.4, hit, 1, 0
1271, 9, T_Sinc, T_Sinc_UGRG, 374.8, hit, 2, 0
1272, 9, T_Sinc, T_Sinc_UGRG, 334.3, hit, 2, 0
1273, 9, T_Scon, T_Scon_URLR, 441.7, hit, 1, 0
1274, 9, T_Sinc, T_Sinc_UGRG, 533.1, hit, 2, 0
1275, 9, T_Sinc, T_Sinc_DRLR, 436.6, hit, 1, 0
1276, 9, T_Sinc, T_Sinc_DRLR, 344.0, hit, 1, 0
1277, 9, T_Scon, T_Scon_URLR, 383.5, hit, 1, 0
1278, 9, T_Scon, T_Scon_DGRG, 294.8, hit, 2, 0
1279, 9, T_Sinc, T_Sinc_UGRG, 254.3, hit, 2, 0
1280, 9, T_Scon, T_Scon_URLR, 369.7, hit, 1, 0
1281, 9, T_Scon, T_Scon_URLR, 365.2, hit, 1, 0
1282, 9, T_Sinc, T_Sinc_UGRG, 328.7, hit, 2, 0
1283, 9, T_Sinc, T_Sinc_UGRG, 424.0, hit, 2, 0
1284, 9, T_Sinc, T_Sinc_DRLR, 359.5, hit, 1, 0
1285, 9, T_Sinc, T_Sinc_DRLR, 350.9, hit, 1, 0
1286, 9, T_Sinc, T_Sinc_UGRG, 346.4, hit, 2, 0
1287, 9, T_Sinc, T_Sinc_UGRG, 297.8, hit, 2, 0
1288, 9, T_Scon, T_Scon_URLR, 437.3, hit, 1, 0
1289, 9, T_Sinc, T_Sinc_DRLR, 320.8, hit, 1, 0
1290, 9, T_Sinc, T_Sinc_UGRG, 428.1, hit, 2, 0
1291, 9, T_Sinc, T_Sinc_UGRG, 475.6, hit, 2, 0
1292, 9, T_Scon, T_Scon_URLR, 503.0, hit, 1, 0
1293, 9, T_Scon, T_Scon_DGRG, 334.5, incorrect, 1, 1
1294, 9, T_Sinc, T_Sinc_UGRG, 377.9, hit, 2, 0
1295, 9, T_Sinc, T_Sinc_DRLR, 441.3, hit, 1, 0
1296, 9, T_Sinc, T_Sinc_DRLR, 396.7, hit, 1, 0
