trial_index, block, condition, full_condition_code, RT, response_type, response_key, error_outlier
1,1, T_Sinc, T_Sinc_DGLG,403.8, hit,1,0
2,1, T_Sinc, T_Sinc_DGLG,455.1, hit,1,0
3,1, T_Sinc, T_Sinc_URRR,382.6, hit,2,0
4,1, T_Sinc, T_Sinc_URRR,366, hit,2,0
5,1, T_Scon, T_Scon_UGLG,377.4, hit,1,0
6,1, T_Sinc, T_Sinc_DGLG,500.9, hit,1,0
7,1, T_Sinc, T_Sinc_URRR,360.4, hit,2,0
8,1, T_Sinc, T_Sinc_URRR,363.7, hit,2,0
9,1, T_Sinc, T_Sinc_DGLG,395.2, hit,1,0
10,1, T_Scon, T_Scon_DRRR,402.7, hit,2,0
11,1, T_Scon, T_Scon_DRRR,470, hit,2,0
12,1, T_Sinc, T_Sinc_URRR,485.5, hit,2,0
13,1, T_Sinc, T_Sinc_DGLG,353, hit,1,0
14,1, T_Sinc, T_Sinc_URRR,380.3, hit,2,0
15,1, T_Sinc, T_Sinc_URRR,371.8, hit,2,0
16,1, T_Sinc, T_Sinc_URRR,395.3, hit,2,0
17,1, T_Sinc, T_Sinc_DGLG,382.6, hit,1,0
18,1, T_Sinc, T_Sinc_DGLG,426.1, hit,1,0
19,1, T_Sinc, T_Sinc_URRR,453.6, hit,2,0
20,1, T_Sinc, T_Sinc_DGLG,369, hit,1,0
21,1, T_Sinc, T_Sinc_DGLG,396.4, hit,1,0
22,1, T_Sinc, T_Sinc_URRR,383.9, hit,2,0
23,1, T_Sinc, T_Sinc_URRR,395.3, hit,2,0
24,1, T_Scon, T_Scon_DRRR,430.7, hit,2,0
25,1, T_Scon, T_Scon_UGLG,454.2, hit,1,0
26,1, T_Sinc, T_Sinc_DGLG,381.6, hit,1,0
27,1, T_Sinc, T_Sinc_URRR,433, hit,2,0
28,1, T_Scon, T_Scon_UGLG,472.5, hit,1,0
29,1, T_Sinc, T_Sinc_DGLG,451.9, hit,1,0
30,1, T_Sinc, T_Sinc_URRR,451.3, hit,2,0
31,1, T_Sinc, T_Sinc_DGLG,326.7, hit,1,0
32,1, T_Sinc, T_Sinc_DGLG,354.2, hit,1,0
33,1, T_Sinc, T_Sinc_DGLG,365.7, hit,1,0
34,1, T_Sinc, T_Sinc_URRR,373.1, hit,2,0
35,1, T_Sinc, T_Sinc_URRR,472.5, hit,2,0
36,1, T_Scon, T_Scon_DRRR,440, hit,2,0
37,1, T_Sinc, T_Sinc_DGLG,679.2, incorrect,2,1
38,1, T_Sinc, T_Sinc_URRR,538.5, hit,2,0
39,1, T_Sinc, T_Sinc_URRR,534, hit,2,0
40,1, T_Sinc, T_Sinc_URRR,437.4, hit,2,0
41,1, T_Scon, T_Scon_UGLG,476.9, hit,1,0
42,1, T_Sinc, T_Sinc_URRR,500.3, hit,2,0
43,1, T_Scon, T_Scon_UGLG,475.8, hit,1,0
44,1, T_Sinc, T_Sinc_DGLG,423.2, hit,1,0
45,1, T_Scon, T_Scon_DRRR,510.6, hit,2,0
46,1, T_Sinc, T_Sinc_DGLG,418.1, hit,1,0
47,1, T_Sinc, T_Sinc_DGLG,373.5, hit,1,0
48,1, T_Scon, T_Scon_DRRR,436.9, hit,2,0
49,1, T_Sinc, T_Sinc_URRR,544.4, hit,2,0
50,1, T_Sinc, T_Sinc_URRR,395.8, hit,2,0
51,1, T_Sinc, T_Sinc_DGLG,355.3, hit,1,0
52,1, T_Sinc, T_Sinc_URRR,462.7, hit,2,0
53,1, T_Sinc, T_Sinc_URRR,406.2, hit,2,0
54,1, T_Scon, T_Scon_DRRR,497.6, hit,2,0
55,1, T_Sinc, T_Sinc_DGLG,377, hit,1,0
56,1, T_Scon, T_Scon_UGLG,404.5, hit,1,0
57,1, T_Sinc, T_Sinc_URRR,407.9, hit,2,0
58,1, T_Scon, T_Scon_DRRR,411.4, hit,2,0
59,1, T_Sinc, T_Sinc_URRR,438.8, hit,2,0
60,1, T_Scon, T_Scon_DRRR,506.3, hit,2,0
61,1, T_Sinc, T_Sinc_URRR,445.7, hit,2,0
62,1, T_Sinc, T_Sinc_DGLG,461.1, hit,1,0
63,1, T_Sinc, T_Sinc_DGLG,352.6, hit,1,0
64,1, T_Sinc, T_Sinc_DGLG,444, hit,1,0
65,1, T_Sinc, T_Sinc_URRR,479.4, hit,2,0
66,1, T_Sinc, T_Sinc_DGLG,466.9, hit,1,0
67,1, T_Scon, T_Scon_UGLG,462.3, hit,1,0
68,1, T_Sinc, T_Sinc_DGLG,265.7, hit,1,0
69,1, T_Sinc, T_Sinc_DGLG,277.2, hit,1,0
70,1, T_Sinc, T_Sinc_URRR,272.5, hit,2,0
71,1, T_Sinc, T_Sinc_DGLG,348, hit,1,0
72,1, T_Sinc, T_Sinc_URRR,411.5, hit,2,0
73,1, T_Sinc, T_Sinc_DGLG,514.7, incorrect,2,1
74,1, T_Sinc, T_Sinc_DGLG,458, hit,1,0
75,1, T_Scon, T_Scon_UGLG,449.5, hit,1,0
76,1, T_Sinc, T_Sinc_DGLG,441, hit,1,0
77,1, T_Sinc, T_Sinc_URRR,436.3, hit,2,0
78,1, T_Scon, T_Scon_DRRR,503.8, hit,2,0
79,1, T_Sinc, T_Sinc_DGLG,459.2, hit,1,0
80,1, T_Sinc, T_Sinc_URRR,514.6, hit,2,0
81,1, T_Scon, T_Scon_UGLG,542.1, hit,1,0
82,1, T_Sinc, T_Sinc_URRR,473.6, hit,2,0
83,1, T_Sinc, T_Sinc_DGLG,328.9, hit,1,0
84,1, T_Sinc, T_Sinc_DGLG,304.4, hit,1,0
85,1, T_Scon, T_Scon_UGLG,427.9, hit,1,0
86,1, T_Sinc, T_Sinc_DGLG,363.2, hit,1,0
87,1, T_Sinc, T_Sinc_URRR,390.7, hit,2,0
88,1, T_Sinc, T_Sinc_URRR,322.2, hit,2,0
89,1, T_Sinc, T_Sinc_URRR,313.6, hit,2,0
90,1, T_Sinc, T_Sinc_DGLG,425, hit,1,0
91,1, T_Scon, T_Scon_DRRR,500.5, hit,2,0
92,1, T_Sinc, T_Sinc_DGLG,379.9, hit,1,0
93,1, T_Scon, T_Scon_UGLG,503.4, hit,1,0
94,1, T_Sinc, T_Sinc_DGLG,394.8, hit,1,0
95,1, T_Sinc, T_Sinc_URRR,498.2, hit,2,0
96,1, T_Sinc, T_Sinc_DGLG,413.7, hit,1,0
97,1, T_Sinc, T_Sinc_DGLG,281.1, hit,1,0
98,1, T_Scon, T_Scon_DRRR,412.5, incorrect,1,1
99,1, T_Sinc, T_Sinc_URRR,380, hit,2,0
100,1, T_Sinc, T_Sinc_DGLG,463.4, hit,1,0
101,1, T_Sinc, T_Sinc_URRR,450.9, hit,2,0
102,1, T_Scon, T_Scon_UGLG,382.3, hit,1,0
103,1, T_Sinc, T_Sinc_URRR,517.7, hit,2,0
104,1, T_Sinc, T_Sinc_URRR,473.2, hit,2,0
105,1, T_Sinc, T_Sinc_DGLG,364.6, hit,1,0
106,1, T_Sinc, T_Sinc_URRR,324.1, hit,2,0
107,1, T_Sinc, T_Sinc_DGLG,311.5, hit,1,0
108,1, T_Sinc, T_Sinc_URRR,402.9, hit,2,0
109,1, T_Sinc, T_Sinc_URRR,430.1, hit,2,0
110,1, T_Scon, T_Scon_DRRR,465.5, hit,2,0
111,1, T_Sinc, T_Sinc_URRR,476.9, hit,2,0
112,1, T_Scon, T_Scon_UGLG,440.4, hit,1,0
113,1, T_Scon, T_Scon_UGLG,379.8, hit,1,0
114,1, T_Scon, T_Scon_UGLG,339.2, hit,1,0
115,1, T_Sinc, T_Sinc_DGLG,322.7, hit,1,0
116,1, T_Sinc, T_Sinc_DGLG,286.2, hit,1,0
117,1, T_Scon, T_Scon_DRRR,297.6, hit,2,0
118,1, T_Sinc, T_Sinc_URRR,429, hit,2,0
119,1, T_Sinc, T_Sinc_URRR,356.5, hit,2,0
120,1, T_Sinc, T_Sinc_URRR,303.9, hit,2,0
121,1, T_Scon, T_Scon_UGLG,339.3, hit,1,0
122,1, T_Scon, T_Scon_DRRR,350.8, hit,2,0
123,1, T_Sinc, T_Sinc_URRR,474.3, hit,2,0
124,1, T_Sinc, T_Sinc_URRR,357.6, hit,2,0
125,1, T_Sinc, T_Sinc_DGLG,361.1, hit,1,0
126,1, T_Sinc, T_Sinc_DGLG,272.5, hit,1,0
127,1, T_Scon, T_Scon_DRRR,379.9, hit,2,0
128,1, T_Sinc, T_Sinc_URRR,471.4, hit,2,0
129,1, T_Sinc, T_Sinc_DGLG,482.9, hit,1,0
130,1, T_Scon, T_Scon_DRRR,394.2, hit,2,0
131,1, T_Sinc, T_Sinc_URRR,469.7, hit,2,0
132,1, T_Sinc, T_Sinc_DGLG,525.2, hit,1,0
133,1, T_Scon, T_Scon_UGLG,504.5, hit,1,0
134,1, T_Scon, T_Scon_DRRR,412, hit,2,0
135,1, T_Scon, T_Scon_UGLG,511.5, hit,1,0
136,1, T_Sinc, T_Sinc_DGLG,506.9, hit,1,0
137,1, T_Sinc, T_Sinc_DGLG,374.3, hit,1,0
138,1, T_Sinc, T_Sinc_DGLG,389.8, hit,1,0
139,1, T_Sinc, T_Sinc_URRR,441.2, hit,2,0
140,1, T_Sinc, T_Sinc_DGLG,420.6, hit,1,0
141,1, T_Sinc, T_Sinc_URRR,336.1, hit,2,0
142,1, T_Sinc, T_Sinc_DGLG,427.5, hit,1,0
143,1, T_Sinc, T_Sinc_URRR,482.9, hit,2,0
144,1, T_Sinc, T_Sinc_DGLG,1042.4, hit,1,2
145,2, T_Sinc, T_Sinc_URRR,416.8, hit,2,0
146,2, T_Sinc, T_Sinc_DGLG,408.3, hit,1,0
147,2, T_Scon, T_Scon_DRRR,435.7, hit,2,0
148,2, T_Scon, T_Scon_UGLG,327.1, hit,1,0
149,2, T_Sinc, T_Sinc_DGLG,326.6, hit,1,0
150,2, T_Sinc, T_Sinc_URRR,433.9, hit,2,0
151,2, T_Scon, T_Scon_DRRR,389.4, hit,2,0
152,2, T_Sinc, T_Sinc_DGLG,456.9, hit,1,0
153,2, T_Scon, T_Scon_DRRR,496.3, hit,2,0
154,2, T_Sinc, T_Sinc_DGLG,607.7, hit,1,0
155,2, T_Sinc, T_Sinc_DGLG,427.2, hit,1,0
156,2, T_Sinc, T_Sinc_DGLG,366.5, hit,1,0
157,2, T_Scon, T_Scon_UGLG,418, incorrect,2,1
158,2, T_Sinc, T_Sinc_DGLG,433.5, hit,1,0
159,2, T_Scon, T_Scon_DRRR,528.9, hit,2,0
160,2, T_Sinc, T_Sinc_DGLG,376.4, hit,1,0
161,2, T_Sinc, T_Sinc_URRR,343.8, hit,2,0
162,2, T_Scon, T_Scon_DRRR,367.2, hit,2,0
163,2, T_Sinc, T_Sinc_URRR,406.7, hit,2,0
164,2, T_Sinc, T_Sinc_DGLG,386.1, hit,1,0
165,2, T_Scon, T_Scon_DRRR,397.6, hit,2,0
166,2, T_Sinc, T_Sinc_DGLG,336.9, hit,1,0
167,2, T_Sinc, T_Sinc_URRR,364.5, hit,2,0
168,2, T_Sinc, T_Sinc_DGLG,451.9, hit,1,0
169,2, T_Scon, T_Scon_DRRR,471.3, hit,2,0
170,2, T_Sinc, T_Sinc_DGLG,354.7, hit,1,0
171,2, T_Sinc, T_Sinc_URRR,374.2, hit,2,0
172,2, T_Sinc, T_Sinc_URRR,553.6, hit,2,0
173,2, T_Sinc, T_Sinc_URRR,413.1, hit,2,0
174,2, T_Sinc, T_Sinc_DGLG,368.5, hit,1,0
175,2, T_Sinc, T_Sinc_DGLG,363.9, hit,1,0
176,2, T_Sinc, T_Sinc_DGLG,263.3, hit,1,0
177,2, T_Sinc, T_Sinc_URRR,362.9, hit,2,0
178,2, T_Scon, T_Scon_UGLG,566.2, hit,1,0
179,2, T_Scon, T_Scon_DRRR,489.7, hit,2,0
180,2, T_Sinc, T_Sinc_URRR,501.1, hit,2,0
181,2, T_Sinc, T_Sinc_URRR,1208.3, hit,2,2
182,2, T_Scon, T_Scon_UGLG,443.7, hit,1,0
183,2, T_Sinc, T_Sinc_URRR,371.2, hit,2,0
184,2, T_Sinc, T_Sinc_DGLG,390.5, hit,1,0
185,2, T_Sinc, T_Sinc_URRR,350, hit,2,0
186,2, T_Sinc, T_Sinc_URRR,321.5, hit,2,0
187,2, T_Scon, T_Scon_UGLG,452.8, hit,1,0
188,2, T_Sinc, T_Sinc_DGLG,440.3, hit,1,0
189,2, T_Sinc, T_Sinc_DGLG,403.8, hit,1,0
190,2, T_Sinc, T_Sinc_DGLG,327.2, hit,1,0
191,2, T_Scon, T_Scon_UGLG,458.6, hit,1,0
192,2, T_Sinc, T_Sinc_URRR,314.1, hit,2,0
193,2, T_Sinc, T_Sinc_URRR,357.5, hit,2,0
194,2, T_Sinc, T_Sinc_DGLG,432.9, hit,1,0
195,2, T_Sinc, T_Sinc_DGLG,360.4, hit,1,0
196,2, T_Scon, T_Scon_DRRR,375.8, hit,2,0
197,2, T_Sinc, T_Sinc_URRR,599.2, hit,2,0
198,2, T_Scon, T_Scon_UGLG,426.7, hit,1,0
199,2, T_Sinc, T_Sinc_DGLG,406.2, incorrect,2,1
200,2, T_Scon, T_Scon_UGLG,441.6, hit,1,0
201,2, T_Scon, T_Scon_UGLG,673, hit,1,0
202,2, T_Scon, T_Scon_DRRR,564.5, hit,2,0
203,2, T_Sinc, T_Sinc_DGLG,639.9, hit,1,0
204,2, T_Sinc, T_Sinc_DGLG,387.3, hit,1,0
205,2, T_Sinc, T_Sinc_URRR,510.8, hit,2,0
206,2, T_Sinc, T_Sinc_DGLG,462.2, hit,1,0
207,2, T_Sinc, T_Sinc_DGLG,413.6, hit,1,0
208,2, T_Scon, T_Scon_DRRR,497.1, hit,2,0
209,2, T_Scon, T_Scon_UGLG,532.5, hit,1,0
210,2, T_Scon, T_Scon_UGLG,603.9, hit,1,0
211,2, T_Sinc, T_Sinc_DGLG,423.4, hit,1,0
212,2, T_Sinc, T_Sinc_URRR,370.8, hit,2,0
213,2, T_Sinc, T_Sinc_DGLG,542.2, hit,1,0
214,2, T_Sinc, T_Sinc_URRR,453.7, hit,2,0
215,2, T_Sinc, T_Sinc_URRR,401.1, hit,2,0
216,2, T_Scon, T_Scon_UGLG,652.5, hit,1,0
217,2, T_Sinc, T_Sinc_DGLG,539.8, hit,1,0
218,2, T_Sinc, T_Sinc_DGLG,407.2, hit,1,0
219,2, T_Sinc, T_Sinc_URRR,590.6, hit,2,0
220,2, T_Scon, T_Scon_DRRR,394, hit,2,0
221,2, T_Scon, T_Scon_UGLG,497.5, hit,1,0
222,2, T_Sinc, T_Sinc_DGLG,360.9, hit,1,0
223,2, T_Sinc, T_Sinc_URRR,480.3, hit,2,0
224,2, T_Sinc, T_Sinc_URRR,387.8, hit,2,0
225,2, T_Sinc, T_Sinc_URRR,415.2, hit,2,0
226,2, T_Scon, T_Scon_DRRR,406.7, hit,2,0
227,2, T_Sinc, T_Sinc_URRR,346.1, hit,2,0
228,2, T_Scon, T_Scon_UGLG,453.5, hit,1,0
229,2, T_Sinc, T_Sinc_URRR,381, hit,2,0
230,2, T_Sinc, T_Sinc_DGLG,432.4, hit,1,0
231,2, T_Scon, T_Scon_DRRR,603.8, hit,2,0
232,2, T_Sinc, T_Sinc_URRR,475.3, hit,2,0
233,2, T_Scon, T_Scon_UGLG,514.8, hit,1,0
234,2, T_Sinc, T_Sinc_URRR,518.1, hit,2,0
235,2, T_Sinc, T_Sinc_DGLG,293.6, hit,1,0
236,2, T_Sinc, T_Sinc_URRR,377, hit,2,0
237,2, T_Sinc, T_Sinc_DGLG,492.5, hit,1,0
238,2, T_Scon, T_Scon_UGLG,495.9, hit,1,0
239,2, T_Sinc, T_Sinc_URRR,379.4, hit,2,0
240,2, T_Sinc, T_Sinc_URRR,374.7, hit,2,0
241,2, T_Sinc, T_Sinc_DGLG,338.2, hit,1,0
242,2, T_Sinc, T_Sinc_URRR,361.7, hit,2,0
243,2, T_Sinc, T_Sinc_DGLG,441.1, hit,1,0
244,2, T_Sinc, T_Sinc_DGLG,412.5, hit,1,0
245,2, T_Scon, T_Scon_DRRR,408, hit,2,0
246,2, T_Sinc, T_Sinc_URRR,599.4, hit,2,0
247,2, T_Scon, T_Scon_DRRR,530.8, hit,2,0
248,2, T_Sinc, T_Sinc_URRR,482.3, hit,2,0
249,2, T_Sinc, T_Sinc_DGLG,469.7, hit,1,0
250,2, T_Sinc, T_Sinc_DGLG,521.1, hit,1,0
251,2, T_Sinc, T_Sinc_DGLG,444.6, hit,1,0
252,2, T_Sinc, T_Sinc_URRR,448, hit,2,0
253,2, T_Sinc, T_Sinc_URRR,503.2, hit,2,0
254,2, T_Sinc, T_Sinc_DGLG,434.6, hit,1,0
255,2, T_Sinc, T_Sinc_DGLG,258, hit,1,0
256,2, T_Sinc, T_Sinc_DGLG,289.5, hit,1,0
257,2, T_Sinc, T_Sinc_URRR,537, hit,2,0
258,2, T_Sinc, T_Sinc_URRR,420.3, hit,2,0
259,2, T_Sinc, T_Sinc_URRR,303.8, hit,2,0
260,2, T_Sinc, T_Sinc_URRR,315.3, hit,2,0
261,2, T_Sinc, T_Sinc_URRR,334.6, hit,2,0
262,2, T_Sinc, T_Sinc_DGLG,270.1, hit,1,0
263,2, T_Sinc, T_Sinc_URRR,305.5, hit,2,0
264,2, T_Sinc, T_Sinc_URRR,429, hit,2,0
265,2, T_Sinc, T_Sinc_DGLG,384.4, hit,1,0
266,2, T_Sinc, T_Sinc_URRR,311.9, hit,2,0
267,2, T_Sinc, T_Sinc_DGLG,411.3, hit,1,0
268,2, T_Sinc, T_Sinc_URRR,526.7, hit,2,0
269,2, T_Scon, T_Scon_UGLG,530.2, hit,1,0
270,2, T_Sinc, T_Sinc_DGLG,509.6, hit,1,0
271,2, T_Sinc, T_Sinc_DGLG,345.1, hit,1,0
272,2, T_Sinc, T_Sinc_URRR,332.4, hit,2,0
273,2, T_Sinc, T_Sinc_URRR,379.9, hit,2,0
274,2, T_Sinc, T_Sinc_URRR,291.4, hit,2,0
275,2, T_Sinc, T_Sinc_URRR,338.8, hit,2,0
276,2, T_Sinc, T_Sinc_URRR,274.3, hit,2,0
277,2, T_Sinc, T_Sinc_DGLG,425.7, hit,1,0
278,2, T_Sinc, T_Sinc_DGLG,341.1, hit,1,0
279,2, T_Scon, T_Scon_DRRR,440.6, hit,2,0
280,2, T_Sinc, T_Sinc_DGLG,596, hit,1,0
281,2, T_Sinc, T_Sinc_URRR,403.4, hit,2,0
282,2, T_Sinc, T_Sinc_DGLG,430.9, hit,1,0
283,2, T_Sinc, T_Sinc_URRR,330.3, hit,2,0
284,2, T_Scon, T_Scon_DRRR,381.7, incorrect,1,1
285,2, T_Scon, T_Scon_UGLG,537.2, hit,1,0
286,2, T_Sinc, T_Sinc_DGLG,332.7, hit,1,0
287,2, T_Sinc, T_Sinc_DGLG,400.1, hit,1,0
288,2, T_Sinc, T_Sinc_URRR,383.5, hit,2,0
289,3, T_Sinc, T_Sinc_URRR,459.9, hit,2,0
290,3, T_Sinc, T_Sinc_URRR,315.2, hit,2,0
291,3, T_Sinc, T_Sinc_DGLG,374.7, hit,1,0
292,3, T_Sinc, T_Sinc_DGLG,362.1, hit,1,0
293,3, T_Sinc, T_Sinc_URRR,305.5, hit,2,0
294,3, T_Sinc, T_Sinc_URRR,413, hit,2,0
295,3, T_Sinc, T_Sinc_DGLG,400.4, hit,1,0
296,3, T_Sinc, T_Sinc_URRR,339.8, hit,2,0
297,3, T_Sinc, T_Sinc_DGLG,359.3, hit,1,0
298,3, T_Scon, T_Scon_DRRR,390.7, hit,2,0
299,3, T_Sinc, T_Sinc_URRR,426.1, hit,2,0
300,3, T_Sinc, T_Sinc_URRR,369.6, hit,2,0
301,3, T_Sinc, T_Sinc_DGLG,429, hit,1,0
302,3, T_Scon, T_Scon_DRRR,504.4, hit,2,0
303,3, T_Sinc, T_Sinc_DGLG,619.9, hit,1,0
304,3, T_Sinc, T_Sinc_DGLG,367.3, hit,1,0
305,3, T_Sinc, T_Sinc_DGLG,354.8, hit,1,0
306,3, T_Sinc, T_Sinc_URRR,582.2, hit,2,0
307,3, T_Scon, T_Scon_UGLG,393.7, hit,1,0
308,3, T_Sinc, T_Sinc_DGLG,677, hit,1,0
309,3, T_Scon, T_Scon_DRRR,444.5, hit,2,0
310,3, T_Scon, T_Scon_DRRR,564, hit,2,0
311,3, T_Sinc, T_Sinc_URRR,479.4, hit,2,0
312,3, T_Sinc, T_Sinc_URRR,442.8, hit,2,0
313,3, T_Sinc, T_Sinc_DGLG,362.3, hit,1,0
314,3, T_Sinc, T_Sinc_URRR,385.6, hit,2,0
315,3, T_Sinc, T_Sinc_URRR,345.2, hit,2,0
316,3, T_Sinc, T_Sinc_DGLG,420.6, hit,1,0
317,3, T_Scon, T_Scon_UGLG,680, hit,1,0
318,3, T_Scon, T_Scon_UGLG,335.5, hit,1,0
319,3, T_Sinc, T_Sinc_DGLG,362.9, hit,1,0
320,3, T_Scon, T_Scon_UGLG,534.3, hit,1,0
321,3, T_Scon, T_Scon_UGLG,421.8, hit,1,0
322,3, T_Scon, T_Scon_UGLG,353.2, hit,1,0
323,3, T_Sinc, T_Sinc_DGLG,452.6, hit,1,0
324,3, T_Sinc, T_Sinc_URRR,380.1, hit,2,0
325,3, T_Sinc, T_Sinc_DGLG,555.3, hit,1,0
326,3, T_Sinc, T_Sinc_DGLG,302.6, hit,1,0
327,3, T_Sinc, T_Sinc_DGLG,234.1, hit,1,0
328,3, T_Sinc, T_Sinc_DGLG,301.6, hit,1,0
329,3, T_Sinc, T_Sinc_DGLG,265, hit,1,0
330,3, T_Sinc, T_Sinc_URRR,292.4, hit,2,0
331,3, T_Sinc, T_Sinc_URRR,383.9, hit,2,0
332,3, T_Sinc, T_Sinc_URRR,355.3, hit,2,0
333,3, T_Sinc, T_Sinc_URRR,330.7, hit,2,0
334,3, T_Sinc, T_Sinc_URRR,310.2, hit,2,0
335,3, T_Scon, T_Scon_DRRR,329.6, incorrect,1,1
336,3, T_Sinc, T_Sinc_URRR,405, hit,2,0
337,3, T_Sinc, T_Sinc_DGLG,464.5, hit,1,0
338,3, T_Sinc, T_Sinc_URRR,483.9, hit,2,0
339,3, T_Scon, T_Scon_DRRR,491.3, hit,2,0
340,3, T_Sinc, T_Sinc_DGLG,318.8, hit,1,0
341,3, T_Sinc, T_Sinc_URRR,454.2, hit,2,0
342,3, T_Scon, T_Scon_UGLG,401.6, hit,1,0
343,3, T_Sinc, T_Sinc_URRR,361.1, hit,2,0
344,3, T_Sinc, T_Sinc_DGLG,556.6, hit,1,0
345,3, T_Sinc, T_Sinc_URRR,547.9, hit,2,0
346,3, T_Sinc, T_Sinc_DGLG,591.4, hit,1,0
347,3, T_Sinc, T_Sinc_URRR,474.9, hit,2,0
348,3, T_Sinc, T_Sinc_DGLG,502.3, hit,1,0
349,3, T_Sinc, T_Sinc_URRR,329.7, hit,2,0
350,3, T_Scon, T_Scon_DRRR,461.1, hit,2,0
351,3, T_Sinc, T_Sinc_URRR,640.6, hit,2,0
352,3, T_Sinc, T_Sinc_URRR,416, hit,2,0
353,3, T_Sinc, T_Sinc_DGLG,547.4, hit,1,0
354,3, T_Sinc, T_Sinc_URRR,446.9, hit,2,0
355,3, T_Sinc, T_Sinc_URRR,374.3, hit,2,0
356,3, T_Scon, T_Scon_DRRR,513.8, hit,2,0
357,3, T_Scon, T_Scon_DRRR,409.2, hit,2,0
358,3, T_Sinc, T_Sinc_DGLG,524.7, hit,1,0
359,3, T_Sinc, T_Sinc_DGLG,272.1, hit,1,0
360,3, T_Sinc, T_Sinc_URRR,435.5, hit,2,0
361,3, T_Scon, T_Scon_DRRR,538.7, hit,2,0
362,3, T_Sinc, T_Sinc_URRR,322.1, hit,2,0
363,3, T_Sinc, T_Sinc_DGLG,349.5, hit,1,0
364,3, T_Sinc, T_Sinc_URRR,421, hit,2,0
365,3, T_Sinc, T_Sinc_DGLG,432.4, hit,1,0
366,3, T_Sinc, T_Sinc_URRR,371.9, hit,2,0
367,3, T_Sinc, T_Sinc_DGLG,459.3, hit,1,0
368,3, T_Sinc, T_Sinc_URRR,366.8, hit,2,0
369,3, T_Sinc, T_Sinc_URRR,338.2, hit,2,0
370,3, T_Scon, T_Scon_UGLG,429.6, hit,1,0
371,3, T_Scon, T_Scon_DRRR,489.1, hit,2,0
372,3, T_Scon, T_Scon_UGLG,364.5, incorrect,2,1
373,3, T_Sinc, T_Sinc_URRR,343.9, hit,2,0
374,3, T_Sinc, T_Sinc_DGLG,399.4, hit,1,0
375,3, T_Sinc, T_Sinc_URRR,314.8, hit,2,0
376,3, T_Sinc, T_Sinc_URRR,366.2, hit,2,0
377,3, T_Sinc, T_Sinc_URRR,385.7, hit,2,0
378,3, T_Scon, T_Scon_UGLG,457.2, hit,1,0
379,3, T_Sinc, T_Sinc_DGLG,456.5, hit,1,0
380,3, T_Sinc, T_Sinc_URRR,468, hit,2,0
381,3, T_Sinc, T_Sinc_URRR,463.5, hit,2,0
382,3, T_Scon, T_Scon_DRRR,338.8, hit,2,0
383,3, T_Scon, T_Scon_DRRR,438.3, hit,2,0
384,3, T_Scon, T_Scon_UGLG,365.8, hit,1,0
385,3, T_Scon, T_Scon_DRRR,369.2, hit,2,0
386,3, T_Sinc, T_Sinc_URRR,560.6, hit,2,0
387,3, T_Scon, T_Scon_UGLG,476.1, hit,1,0
388,3, T_Scon, T_Scon_DRRR,403.5, incorrect,1,1
389,3, T_Scon, T_Scon_DRRR,522.9, incorrect,1,1
390,3, T_Sinc, T_Sinc_DGLG,574.4, hit,1,0
391,3, T_Sinc, T_Sinc_DGLG,377.8, hit,1,0
392,3, T_Sinc, T_Sinc_DGLG,633.3, hit,1,0
393,3, T_Sinc, T_Sinc_DGLG,356.7, hit,1,0
394,3, T_Sinc, T_Sinc_DGLG,376.1, hit,1,0
395,3, T_Scon, T_Scon_UGLG,523.6, hit,1,0
396,3, T_Sinc, T_Sinc_URRR,375, hit,2,0
397,3, T_Sinc, T_Sinc_DGLG,358.2, hit,1,0
398,3, T_Sinc, T_Sinc_DGLG,269.6, hit,1,0
399,3, T_Sinc, T_Sinc_DGLG,289, hit,1,0
400,3, T_Scon, T_Scon_UGLG,368.5, hit,1,0
401,3, T_Sinc, T_Sinc_DGLG,308, hit,1,0
402,3, T_Sinc, T_Sinc_DGLG,259.3, hit,1,0
403,3, T_Scon, T_Scon_UGLG,418.8, hit,1,0
404,3, T_Sinc, T_Sinc_DGLG,398.3, hit,1,0
405,3, T_Sinc, T_Sinc_URRR,373.6, hit,2,0
406,3, T_Sinc, T_Sinc_URRR,321.1, hit,2,0
407,3, T_Sinc, T_Sinc_DGLG,396.6, hit,1,0
408,3, T_Sinc, T_Sinc_DGLG,376, hit,1,0
409,3, T_Sinc, T_Sinc_DGLG,263.4, hit,1,0
410,3, T_Sinc, T_Sinc_DGLG,250.9, hit,1,0
411,3, T_Sinc, T_Sinc_DGLG,218.3, hit,1,0
412,3, T_Sinc, T_Sinc_DGLG,265.7, hit,1,0
413,3, T_Sinc, T_Sinc_URRR,265.2, hit,2,0
414,3, T_Sinc, T_Sinc_DGLG,268.6, hit,1,0
415,3, T_Sinc, T_Sinc_URRR,320, hit,2,0
416,3, T_Scon, T_Scon_DRRR,563.5, hit,2,0
417,3, T_Sinc, T_Sinc_DGLG,554.9, hit,1,0
418,3, T_Sinc, T_Sinc_DGLG,334.4, hit,1,0
419,3, T_Sinc, T_Sinc_DGLG,425.8, hit,1,0
420,3, T_Sinc, T_Sinc_DGLG,309.3, hit,1,0
421,3, T_Sinc, T_Sinc_URRR,340.7, hit,2,0
422,3, T_Sinc, T_Sinc_URRR,332.1, hit,2,0
423,3, T_Sinc, T_Sinc_URRR,255.6, hit,2,0
424,3, T_Scon, T_Scon_UGLG,395, hit,1,0
425,3, T_Scon, T_Scon_DRRR,598.4, hit,2,0
426,3, T_Sinc, T_Sinc_URRR,541.9, hit,2,0
427,3, T_Scon, T_Scon_UGLG,437.3, hit,1,0
428,3, T_Sinc, T_Sinc_DGLG,380.8, hit,1,0
429,3, T_Scon, T_Scon_UGLG,596.2, hit,1,0
430,3, T_Sinc, T_Sinc_URRR,687.6, hit,2,0
431,3, T_Sinc, T_Sinc_URRR,619, hit,2,0
432,3, T_Sinc, T_Sinc_URRR,402.5, hit,2,0
433,4, T_Scon, T_Scon_DRRR,440.9, hit,2,0
434,4, T_Scon, T_Scon_UGLG,500.3, hit,1,0
435,4, T_Scon, T_Scon_DRRR,339.6, hit,2,0
436,4, T_Scon, T_Scon_UGLG,515.1, hit,1,0
437,4, T_Scon, T_Scon_UGLG,446.6, hit,1,0
438,4, T_Scon, T_Scon_DRRR,262, hit,2,0
439,4, T_Sinc, T_Sinc_DGLG,329.5, hit,1,0
440,4, T_Sinc, T_Sinc_DGLG,372.9, hit,1,0
441,4, T_Scon, T_Scon_DRRR,368.4, hit,2,0
442,4, T_Sinc, T_Sinc_DGLG,451.7, hit,1,0
443,4, T_Sinc, T_Sinc_URRR,343.2, hit,2,0
444,4, T_Scon, T_Scon_DRRR,498.7, hit,2,0
445,4, T_Sinc, T_Sinc_URRR,486.1, hit,2,0
446,4, T_Scon, T_Scon_DRRR,401.5, hit,2,0
447,4, T_Scon, T_Scon_DRRR,285, hit,2,0
448,4, T_Scon, T_Scon_UGLG,380.3, hit,1,0
449,4, T_Sinc, T_Sinc_DGLG,407.8, hit,1,0
450,4, T_Sinc, T_Sinc_DGLG,379.2, hit,1,0
451,4, T_Scon, T_Scon_UGLG,442.7, hit,1,0
452,4, T_Scon, T_Scon_DRRR,374.1, hit,2,0
453,4, T_Scon, T_Scon_UGLG,677.5, hit,1,0
454,4, T_Scon, T_Scon_UGLG,353, hit,1,0
455,4, T_Scon, T_Scon_DRRR,364.4, hit,2,0
456,4, T_Sinc, T_Sinc_DGLG,651.9, hit,1,0
457,4, T_Sinc, T_Sinc_URRR,447.3, hit,2,0
458,4, T_Sinc, T_Sinc_DGLG,266.8, hit,1,0
459,4, T_Scon, T_Scon_UGLG,374.3, hit,1,0
460,4, T_Scon, T_Scon_DRRR,425.7, hit,2,0
461,4, T_Scon, T_Scon_UGLG,357.1, hit,1,0
462,4, T_Sinc, T_Sinc_URRR,416.5, hit,2,0
463,4, T_Scon, T_Scon_UGLG,483.9, hit,1,0
464,4, T_Scon, T_Scon_UGLG,395.4, hit,1,0
465,4, T_Scon, T_Scon_DRRR,414.9, hit,2,0
466,4, T_Scon, T_Scon_DRRR,650.2, hit,2,0
467,4, T_Sinc, T_Sinc_DGLG,445.7, hit,1,0
468,4, T_Sinc, T_Sinc_DGLG,509.2, hit,1,0
469,4, T_Scon, T_Scon_UGLG,516.3, hit,1,0
470,4, T_Sinc, T_Sinc_DGLG,535.7, hit,1,0
471,4, T_Scon, T_Scon_DRRR,479.2, hit,2,0
472,4, T_Scon, T_Scon_UGLG,538.5, hit,1,0
473,4, T_Sinc, T_Sinc_DGLG,330, hit,1,0
474,4, T_Scon, T_Scon_DRRR,393.5, hit,2,0
475,4, T_Scon, T_Scon_UGLG,332.9, hit,1,0
476,4, T_Scon, T_Scon_UGLG,412.3, hit,1,0
477,4, T_Scon, T_Scon_DRRR,475.8, hit,2,0
478,4, T_Sinc, T_Sinc_DGLG,439.2, hit,1,0
479,4, T_Scon, T_Scon_UGLG,346.6, hit,1,0
480,4, T_Scon, T_Scon_DRRR,486.1, hit,2,0
481,4, T_Scon, T_Scon_DRRR,493.6, hit,2,0
482,4, T_Scon, T_Scon_UGLG,340.9, hit,1,0
483,4, T_Scon, T_Scon_DRRR,720.4, hit,2,0
484,4, T_Scon, T_Scon_DRRR,351.8, hit,2,0
485,4, T_Scon, T_Scon_UGLG,415.3, hit,1,0
486,4, T_Scon, T_Scon_UGLG,358.7, hit,1,0
487,4, T_Scon, T_Scon_DRRR,442.2, hit,2,0
488,4, T_Sinc, T_Sinc_DGLG,513.6, hit,1,0
489,4, T_Sinc, T_Sinc_URRR,365, hit,2,0
490,4, T_Scon, T_Scon_UGLG,560.5, hit,1,0
491,4, T_Scon, T_Scon_DRRR,779.9, hit,2,0
492,4, T_Scon, T_Scon_DRRR,335.3, hit,2,0
493,4, T_Scon, T_Scon_UGLG,466.8, hit,1,0
494,4, T_Scon, T_Scon_DRRR,506.2, hit,2,0
495,4, T_Scon, T_Scon_DRRR,581.6, hit,2,0
496,4, T_Sinc, T_Sinc_URRR,497.1, hit,2,0
497,4, T_Scon, T_Scon_DRRR,468.5, hit,2,0
498,4, T_Scon, T_Scon_UGLG,367.9, hit,1,0
499,4, T_Scon, T_Scon_DRRR,339.4, hit,2,0
500,4, T_Sinc, T_Sinc_URRR,638.9, hit,2,0
501,4, T_Scon, T_Scon_UGLG,470.3, hit,1,0
502,4, T_Scon, T_Scon_DRRR,441.7, hit,2,0
503,4, T_Sinc, T_Sinc_URRR,365.2, incorrect,1,1
504,4, T_Scon, T_Scon_DRRR,380.6, hit,2,0
505,4, T_Scon, T_Scon_UGLG,423.8, hit,1,0
506,4, T_Scon, T_Scon_DRRR,419.2, hit,2,0
507,4, T_Sinc, T_Sinc_DGLG,598.7, hit,1,0
508,4, T_Scon, T_Scon_UGLG,546, hit,1,0
509,4, T_Scon, T_Scon_UGLG,325.5, hit,1,0
510,4, T_Scon, T_Scon_DRRR,285, hit,2,0
511,4, T_Scon, T_Scon_UGLG,384.4, hit,1,0
512,4, T_Scon, T_Scon_DRRR,455.8, hit,2,0
513,4, T_Scon, T_Scon_DRRR,531.3, hit,2,0
514,4, T_Scon, T_Scon_UGLG,422.7, hit,1,0
515,4, T_Scon, T_Scon_UGLG,394.1, hit,1,0
516,4, T_Scon, T_Scon_UGLG,305.6, hit,1,0
517,4, T_Sinc, T_Sinc_URRR,373, hit,2,0
518,4, T_Scon, T_Scon_UGLG,400.4, hit,1,0
519,4, T_Scon, T_Scon_UGLG,371.9, hit,1,0
520,4, T_Scon, T_Scon_UGLG,319.3, hit,1,0
521,4, T_Scon, T_Scon_DRRR,394.8, hit,2,0
522,4, T_Scon, T_Scon_UGLG,462.2, hit,1,0
523,4, T_Sinc, T_Sinc_DGLG,413.6, hit,1,0
524,4, T_Scon, T_Scon_DRRR,449.1, hit,2,0
525,4, T_Scon, T_Scon_DRRR,676.6, hit,2,0
526,4, T_Scon, T_Scon_DRRR,447.9, hit,2,0
527,4, T_Scon, T_Scon_UGLG,375.4, hit,1,0
528,4, T_Sinc, T_Sinc_DGLG,306.8, hit,1,0
529,4, T_Sinc, T_Sinc_URRR,334.2, hit,2,0
530,4, T_Sinc, T_Sinc_URRR,317.7, hit,2,0
531,4, T_Scon, T_Scon_DRRR,417.2, hit,2,0
532,4, T_Sinc, T_Sinc_DGLG,468.5, hit,1,0
533,4, T_Scon, T_Scon_UGLG,340, hit,1,0
534,4, T_Scon, T_Scon_UGLG,431.5, hit,1,0
535,4, T_Sinc, T_Sinc_URRR,366.8, hit,2,0
536,4, T_Scon, T_Scon_DRRR,506.3, hit,2,0
537,4, T_Scon, T_Scon_DRRR,449.8, hit,2,0
538,4, T_Scon, T_Scon_UGLG,401.2, hit,1,0
539,4, T_Scon, T_Scon_UGLG,284.6, hit,1,0
540,4, T_Sinc, T_Sinc_URRR,440.1, hit,2,0
541,4, T_Scon, T_Scon_DRRR,495.3, hit,2,0
542,4, T_Scon, T_Scon_UGLG,350.6, hit,1,0
543,4, T_Scon, T_Scon_UGLG,446.1, hit,1,0
544,4, T_Scon, T_Scon_UGLG,321.6, hit,1,0
545,4, T_Scon, T_Scon_DRRR,245, hit,2,0
546,4, T_Scon, T_Scon_UGLG,496.4, hit,1,0
547,4, T_Scon, T_Scon_UGLG,319.9, hit,1,0
548,4, T_Scon, T_Scon_UGLG,279.3, hit,1,0
549,4, T_Scon, T_Scon_UGLG,322.7, hit,1,0
550,4, T_Scon, T_Scon_DRRR,470.2, hit,2,0
551,4, T_Sinc, T_Sinc_URRR,509.5, hit,2,0
552,4, T_Sinc, T_Sinc_URRR,329, hit,2,0
553,4, T_Scon, T_Scon_DRRR,428.5, hit,2,0
554,4, T_Sinc, T_Sinc_URRR,391.9, hit,2,0
555,4, T_Scon, T_Scon_DRRR,355.3, hit,2,0
556,4, T_Scon, T_Scon_DRRR,450.8, hit,2,0
557,4, T_Scon, T_Scon_UGLG,346.2, hit,1,0
558,4, T_Scon, T_Scon_DRRR,353.7, hit,2,0
559,4, T_Scon, T_Scon_UGLG,441.1, hit,1,0
560,4, T_Scon, T_Scon_UGLG,412.5, hit,1,0
561,4, T_Sinc, T_Sinc_DGLG,440, hit,1,0
562,4, T_Sinc, T_Sinc_URRR,359.4, hit,2,0
563,4, T_Scon, T_Scon_DRRR,530.8, hit,2,0
564,4, T_Scon, T_Scon_DRRR,350.3, hit,2,0
565,4, T_Scon, T_Scon_DRRR,341.7, hit,2,0
566,4, T_Scon, T_Scon_DRRR,309.1, hit,2,0
567,4, T_Scon, T_Scon_UGLG,344.6, hit,1,0
568,4, T_Scon, T_Scon_UGLG,292.1, hit,1,0
569,4, T_Sinc, T_Sinc_URRR,455.4, hit,2,0
570,4, T_Scon, T_Scon_UGLG,530.9, hit,1,0
571,4, T_Scon, T_Scon_UGLG,622.4, hit,1,0
572,4, T_Scon, T_Scon_DRRR,489.7, hit,2,0
573,4, T_Scon, T_Scon_DRRR,449.2, hit,2,0
574,4, T_Scon, T_Scon_UGLG,460.7, hit,1,0
575,4, T_Scon, T_Scon_DRRR,396.1, hit,2,0
576,4, T_Scon, T_Scon_DRRR,551.5, hit,2,0
577,5, T_Scon, T_Scon_UGLG,407.3, hit,1,0
578,5, T_Scon, T_Scon_UGLG,354.7, hit,1,0
579,5, T_Sinc, T_Sinc_URRR,358.1, hit,2,0
580,5, T_Scon, T_Scon_DRRR,293.6, hit,2,0
581,5, T_Scon, T_Scon_UGLG,273, hit,1,0
582,5, T_Scon, T_Scon_UGLG,356.4, hit,1,0
583,5, T_Sinc, T_Sinc_DGLG,311.8, hit,1,0
584,5, T_Scon, T_Scon_UGLG,267.3, hit,1,0
585,5, T_Scon, T_Scon_UGLG,282.7, hit,1,0
586,5, T_Scon, T_Scon_DRRR,398.2, hit,2,0
587,5, T_Scon, T_Scon_DRRR,281.6, hit,2,0
588,5, T_Sinc, T_Sinc_DGLG,425, hit,1,0
589,5, T_Scon, T_Scon_UGLG,384.4, hit,1,0
590,5, T_Scon, T_Scon_DRRR,299.9, hit,2,0
591,5, T_Scon, T_Scon_DRRR,279.3, hit,2,0
592,5, T_Scon, T_Scon_UGLG,370.8, hit,1,0
593,5, T_Scon, T_Scon_DRRR,406.2, hit,2,0
594,5, T_Sinc, T_Sinc_URRR,637.6, hit,2,0
595,5, T_Scon, T_Scon_DRRR,469.1, hit,2,0
596,5, T_Scon, T_Scon_DRRR,400.5, hit,2,0
597,5, T_Scon, T_Scon_UGLG,388, hit,1,0
598,5, T_Sinc, T_Sinc_DGLG,391.4, hit,1,0
599,5, T_Sinc, T_Sinc_URRR,362.8, hit,2,0
600,5, T_Scon, T_Scon_UGLG,562.3, hit,1,0
601,5, T_Scon, T_Scon_UGLG,405.7, hit,1,0
602,5, T_Scon, T_Scon_DRRR,349.2, hit,2,0
603,5, T_Scon, T_Scon_UGLG,516.6, hit,1,0
604,5, T_Sinc, T_Sinc_DGLG,664, hit,1,0
605,5, T_Scon, T_Scon_UGLG,323.5, hit,1,0
606,5, T_Scon, T_Scon_DRRR,314.9, hit,2,0
607,5, T_Scon, T_Scon_DRRR,262.3, hit,2,0
608,5, T_Sinc, T_Sinc_URRR,441.8, hit,2,0
609,5, T_Scon, T_Scon_UGLG,525.2, hit,1,0
610,5, T_Sinc, T_Sinc_URRR,528.6, hit,2,0
611,5, T_Scon, T_Scon_DRRR,420.1, hit,2,0
612,5, T_Scon, T_Scon_UGLG,475.6, hit,1,0
613,5, T_Sinc, T_Sinc_DGLG,490.8, hit,1,0
614,5, T_Scon, T_Scon_DRRR,342.1, hit,2,0
615,5, T_Sinc, T_Sinc_URRR,417.6, hit,2,0
616,5, T_Sinc, T_Sinc_URRR,397, hit,2,0
617,5, T_Scon, T_Scon_UGLG,504.5, hit,1,0
618,5, T_Scon, T_Scon_UGLG,467.9, hit,1,0
619,5, T_Sinc, T_Sinc_DGLG,339.3, hit,1,0
620,5, T_Scon, T_Scon_UGLG,302.8, hit,1,0
621,5, T_Sinc, T_Sinc_DGLG,330.2, hit,1,0
622,5, T_Scon, T_Scon_DRRR,393.6, hit,2,0
623,5, T_Sinc, T_Sinc_URRR,537.1, hit,2,0
624,5, T_Scon, T_Scon_UGLG,384.5, hit,1,0
625,5, T_Scon, T_Scon_DRRR,572, hit,2,0
626,5, T_Scon, T_Scon_UGLG,467.4, hit,1,0
627,5, T_Scon, T_Scon_DRRR,446.8, hit,2,0
628,5, T_Scon, T_Scon_DRRR,506.3, hit,2,0
629,5, T_Scon, T_Scon_DRRR,357.7, hit,2,0
630,5, T_Scon, T_Scon_DRRR,313.1, hit,2,0
631,5, T_Scon, T_Scon_UGLG,436.6, hit,1,0
632,5, T_Scon, T_Scon_DRRR,508, hit,2,0
633,5, T_Scon, T_Scon_DRRR,399.4, hit,2,0
634,5, T_Scon, T_Scon_DRRR,362.9, hit,2,0
635,5, T_Scon, T_Scon_DRRR,434.4, hit,2,0
636,5, T_Scon, T_Scon_DRRR,361.7, hit,2,0
637,5, T_Scon, T_Scon_UGLG,421.2, hit,1,0
638,5, T_Scon, T_Scon_DRRR,448.7, hit,2,0
639,5, T_Scon, T_Scon_UGLG,236, hit,1,0
640,5, T_Sinc, T_Sinc_DGLG,387.5, hit,1,0
641,5, T_Scon, T_Scon_DRRR,455, hit,2,0
642,5, T_Sinc, T_Sinc_DGLG,370.4, incorrect,2,1
643,5, T_Scon, T_Scon_DRRR,517.8, hit,2,0
644,5, T_Scon, T_Scon_DRRR,601.3, hit,2,0
645,5, T_Scon, T_Scon_UGLG,384.7, hit,1,0
646,5, T_Scon, T_Scon_DRRR,544.1, hit,2,0
647,5, T_Sinc, T_Sinc_DGLG,491.6, hit,1,0
648,5, T_Scon, T_Scon_UGLG,471, hit,1,0
649,5, T_Scon, T_Scon_UGLG,362.2, hit,1,0
650,5, T_Scon, T_Scon_UGLG,349.6, hit,1,0
651,5, T_Scon, T_Scon_UGLG,325, hit,1,0
652,5, T_Sinc, T_Sinc_URRR,488.4, hit,2,0
653,5, T_Sinc, T_Sinc_DGLG,499.9, hit,1,0
654,5, T_Scon, T_Scon_DRRR,599.3, hit,2,0
655,5, T_Scon, T_Scon_UGLG,414.8, hit,1,0
656,5, T_Scon, T_Scon_UGLG,442.1, hit,1,0
657,5, T_Scon, T_Scon_UGLG,285.6, hit,1,0
658,5, T_Scon, T_Scon_DRRR,393.1, hit,2,0
659,5, T_Scon, T_Scon_DRRR,716.5, hit,2,0
660,5, T_Scon, T_Scon_DRRR,323.9, hit,2,0
661,5, T_Scon, T_Scon_UGLG,375.4, hit,1,0
662,5, T_Sinc, T_Sinc_URRR,398.9, hit,2,0
663,5, T_Scon, T_Scon_DRRR,434.2, hit,2,0
664,5, T_Scon, T_Scon_DRRR,341.7, hit,2,0
665,5, T_Scon, T_Scon_DRRR,257.1, hit,2,0
666,5, T_Scon, T_Scon_DRRR,432.5, hit,2,0
667,5, T_Scon, T_Scon_UGLG,408, hit,1,0
668,5, T_Sinc, T_Sinc_DGLG,283.5, hit,1,0
669,5, T_Scon, T_Scon_UGLG,326.8, hit,1,0
670,5, T_Scon, T_Scon_DRRR,454.3, hit,2,0
671,5, T_Sinc, T_Sinc_URRR,337.8, hit,2,0
672,5, T_Sinc, T_Sinc_URRR,369.2, hit,2,0
673,5, T_Sinc, T_Sinc_URRR,380.7, hit,2,0
674,5, T_Scon, T_Scon_DRRR,432.1, hit,2,0
675,5, T_Scon, T_Scon_DRRR,295.5, hit,2,0
676,5, T_Sinc, T_Sinc_DGLG,706.9, hit,1,0
677,5, T_Scon, T_Scon_DRRR,430.3, hit,2,0
678,5, T_Sinc, T_Sinc_URRR,465.8, hit,2,0
679,5, T_Scon, T_Scon_UGLG,409.3, hit,1,0
680,5, T_Scon, T_Scon_UGLG,356.7, hit,1,0
681,5, T_Scon, T_Scon_DRRR,408.1, hit,2,0
682,5, T_Sinc, T_Sinc_URRR,487.6, hit,2,0
683,5, T_Scon, T_Scon_DRRR,387, hit,2,0
684,5, T_Sinc, T_Sinc_DGLG,418.4, hit,1,0
685,5, T_Sinc, T_Sinc_URRR,525.6, hit,2,0
686,5, T_Scon, T_Scon_UGLG,497, hit,1,0
687,5, T_Scon, T_Scon_UGLG,360.4, hit,1,0
688,5, T_Sinc, T_Sinc_DGLG,283.9, hit,1,0
689,5, T_Scon, T_Scon_UGLG,391.4, hit,1,0
690,5, T_Scon, T_Scon_UGLG,346.7, hit,1,0
691,5, T_Scon, T_Scon_UGLG,318.2, hit,1,0
692,5, T_Sinc, T_Sinc_DGLG,385.7, hit,1,0
693,5, T_Scon, T_Scon_DRRR,381, hit,2,0
694,5, T_Scon, T_Scon_UGLG,396.5, hit,1,0
695,5, T_Scon, T_Scon_UGLG,300, hit,1,0
696,5, T_Scon, T_Scon_DRRR,383.3, hit,2,0
697,5, T_Scon, T_Scon_DRRR,450.8, hit,2,0
698,5, T_Scon, T_Scon_UGLG,438.3, hit,1,0
699,5, T_Scon, T_Scon_UGLG,393.7, hit,1,0
700,5, T_Scon, T_Scon_UGLG,265.1, hit,1,0
701,5, T_Scon, T_Scon_DRRR,532.6, hit,2,0
702,5, T_Scon, T_Scon_UGLG,496.1, hit,1,0
703,5, T_Scon, T_Scon_DRRR,539.4, hit,2,0
704,5, T_Scon, T_Scon_UGLG,506.9, hit,1,0
705,5, T_Scon, T_Scon_DRRR,558.4, hit,2,0
706,5, T_Scon, T_Scon_DRRR,433.8, hit,2,0
707,5, T_Scon, T_Scon_UGLG,361.2, hit,1,0
708,5, T_Scon, T_Scon_DRRR,380.7, hit,2,0
709,5, T_Scon, T_Scon_UGLG,408.1, hit,1,0
710,5, T_Sinc, T_Sinc_URRR,551.5, hit,2,0
711,5, T_Scon, T_Scon_UGLG,399, hit,1,0
712,5, T_Scon, T_Scon_UGLG,466.4, hit,1,0
713,5, T_Scon, T_Scon_DRRR,333.8, hit,2,0
714,5, T_Scon, T_Scon_UGLG,269.3, hit,1,0
715,5, T_Sinc, T_Sinc_DGLG,336.8, hit,1,0
716,5, T_Scon, T_Scon_UGLG,404.1, hit,1,0
717,5, T_Sinc, T_Sinc_DGLG,367.6, hit,1,0
718,5, T_Sinc, T_Sinc_URRR,323.1, hit,2,0
719,5, T_Scon, T_Scon_DRRR,482.4, hit,2,0
720,5, T_Scon, T_Scon_DRRR,353.9, hit,2,0
721,6, T_Sinc, T_Sinc_URRR,440.3, hit,2,0
722,6, T_Scon, T_Scon_UGLG,331.6, hit,1,0
723,6, T_Scon, T_Scon_DRRR,483.1, hit,2,0
724,6, T_Scon, T_Scon_DRRR,406.6, hit,2,0
725,6, T_Scon, T_Scon_DRRR,338, hit,2,0
726,6, T_Sinc, T_Sinc_DGLG,497.4, hit,1,0
727,6, T_Scon, T_Scon_DRRR,364.9, hit,2,0
728,6, T_Scon, T_Scon_UGLG,360.3, hit,1,0
729,6, T_Scon, T_Scon_DRRR,431.7, hit,2,0
730,6, T_Sinc, T_Sinc_URRR,471.2, hit,2,0
731,6, T_Sinc, T_Sinc_DGLG,638.6, hit,1,0
732,6, T_Scon, T_Scon_DRRR,510, hit,2,0
733,6, T_Scon, T_Scon_UGLG,465.5, hit,1,0
734,6, T_Sinc, T_Sinc_DGLG,545, hit,1,0
735,6, T_Scon, T_Scon_UGLG,328.3, hit,1,0
736,6, T_Scon, T_Scon_DRRR,287.8, hit,2,0
737,6, T_Scon, T_Scon_UGLG,307.3, hit,1,0
738,6, T_Scon, T_Scon_DRRR,342.6, hit,2,0
739,6, T_Scon, T_Scon_UGLG,322.1, hit,1,0
740,6, T_Sinc, T_Sinc_URRR,453.5, incorrect,1,1
741,6, T_Scon, T_Scon_UGLG,465, hit,1,0
742,6, T_Sinc, T_Sinc_URRR,532.4, hit,2,0
743,6, T_Scon, T_Scon_UGLG,539.9, hit,1,0
744,6, T_Scon, T_Scon_DRRR,531.3, hit,2,0
745,6, T_Scon, T_Scon_UGLG,542.7, hit,1,0
746,6, T_Scon, T_Scon_DRRR,434.1, hit,2,0
747,6, T_Scon, T_Scon_DRRR,365.6, hit,2,0
748,6, T_Scon, T_Scon_DRRR,353.1, hit,2,0
749,6, T_Scon, T_Scon_DRRR,364.4, hit,2,0
750,6, T_Sinc, T_Sinc_DGLG,435.9, hit,1,0
751,6, T_Scon, T_Scon_UGLG,423.4, hit,1,0
752,6, T_Sinc, T_Sinc_URRR,538.7, hit,2,0
753,6, T_Scon, T_Scon_DRRR,390.2, hit,2,0
754,6, T_Scon, T_Scon_DRRR,437.7, hit,2,0
755,6, T_Scon, T_Scon_DRRR,297.1, hit,2,0
756,6, T_Scon, T_Scon_DRRR,268.5, hit,2,0
757,6, T_Scon, T_Scon_UGLG,547.7, hit,1,0
758,6, T_Sinc, T_Sinc_DGLG,339.1, hit,1,0
759,6, T_Sinc, T_Sinc_DGLG,318.6, hit,1,0
760,6, T_Sinc, T_Sinc_URRR,330, hit,2,0
761,6, T_Scon, T_Scon_UGLG,421.4, hit,1,0
762,6, T_Scon, T_Scon_UGLG,296.9, hit,1,0
763,6, T_Scon, T_Scon_DRRR,384.3, hit,2,0
764,6, T_Scon, T_Scon_DRRR,279.8, hit,2,0
765,6, T_Sinc, T_Sinc_URRR,427.2, hit,2,0
766,6, T_Scon, T_Scon_UGLG,398.6, hit,1,0
767,6, T_Scon, T_Scon_DRRR,354.1, hit,2,0
768,6, T_Scon, T_Scon_UGLG,373.4, incorrect,2,1
769,6, T_Scon, T_Scon_UGLG,520.9, hit,1,0
770,6, T_Sinc, T_Sinc_DGLG,440.4, hit,1,0
771,6, T_Scon, T_Scon_DRRR,647.8, hit,2,0
772,6, T_Scon, T_Scon_UGLG,863.2, hit,1,2
773,6, T_Scon, T_Scon_DRRR,498.7, hit,2,0
774,6, T_Sinc, T_Sinc_URRR,570.2, hit,2,0
775,6, T_Scon, T_Scon_DRRR,309.5, hit,2,0
776,6, T_Scon, T_Scon_DRRR,277, hit,2,0
777,6, T_Scon, T_Scon_DRRR,340.4, hit,2,0
778,6, T_Scon, T_Scon_UGLG,239.8, hit,1,0
779,6, T_Scon, T_Scon_DRRR,491.3, hit,2,0
780,6, T_Sinc, T_Sinc_DGLG,390.8, hit,1,0
781,6, T_Scon, T_Scon_DRRR,466.1, hit,2,0
782,6, T_Scon, T_Scon_DRRR,333.6, hit,2,0
783,6, T_Sinc, T_Sinc_DGLG,509.1, hit,1,0
784,6, T_Scon, T_Scon_UGLG,600.5, hit,1,0
785,6, T_Scon, T_Scon_UGLG,371.9, hit,1,0
786,6, T_Scon, T_Scon_UGLG,287.4, hit,1,0
787,6, T_Sinc, T_Sinc_URRR,570.8, hit,2,0
788,6, T_Scon, T_Scon_UGLG,630.2, hit,1,0
789,6, T_Scon, T_Scon_UGLG,561.7, hit,1,0
790,6, T_Scon, T_Scon_UGLG,421.1, hit,1,0
791,6, T_Scon, T_Scon_DRRR,352.5, hit,2,0
792,6, T_Scon, T_Scon_UGLG,436, hit,1,0
793,6, T_Scon, T_Scon_UGLG,327.2, hit,1,0
794,6, T_Scon, T_Scon_UGLG,262.5, hit,1,0
795,6, T_Sinc, T_Sinc_DGLG,390, hit,1,0
796,6, T_Scon, T_Scon_DRRR,349.5, hit,2,0
797,6, T_Scon, T_Scon_UGLG,368.9, hit,1,0
798,6, T_Scon, T_Scon_UGLG,352.3, hit,1,0
799,6, T_Scon, T_Scon_DRRR,371.8, hit,2,0
800,6, T_Scon, T_Scon_UGLG,583.2, hit,1,0
801,6, T_Scon, T_Scon_DRRR,498.7, hit,2,0
802,6, T_Scon, T_Scon_UGLG,462.1, hit,1,0
803,6, T_Scon, T_Scon_UGLG,441.5, hit,1,0
804,6, T_Scon, T_Scon_DRRR,381, hit,2,0
805,6, T_Scon, T_Scon_UGLG,376.4, hit,1,0
806,6, T_Scon, T_Scon_UGLG,891.8, hit,1,2
807,6, T_Sinc, T_Sinc_URRR,407.3, hit,2,0
808,6, T_Scon, T_Scon_DRRR,314.7, hit,2,0
809,6, T_Scon, T_Scon_UGLG,286.1, hit,1,0
810,6, T_Scon, T_Scon_UGLG,337.6, hit,1,0
811,6, T_Scon, T_Scon_DRRR,453, hit,2,0
812,6, T_Sinc, T_Sinc_DGLG,432.4, hit,1,0
813,6, T_Scon, T_Scon_UGLG,779.9, hit,1,0
814,6, T_Scon, T_Scon_DRRR,343.4, hit,2,0
815,6, T_Scon, T_Scon_DRRR,358.7, hit,2,0
816,6, T_Scon, T_Scon_DRRR,342.2, hit,2,0
817,6, T_Scon, T_Scon_DRRR,329.7, hit,2,0
818,6, T_Scon, T_Scon_DRRR,309, hit,2,0
819,6, T_Scon, T_Scon_UGLG,376.5, hit,1,0
820,6, T_Sinc, T_Sinc_DGLG,280, hit,1,0
821,6, T_Scon, T_Scon_DRRR,483.4, hit,2,0
822,6, T_Scon, T_Scon_DRRR,378.8, hit,2,0
823,6, T_Sinc, T_Sinc_DGLG,502.3, hit,1,0
824,6, T_Scon, T_Scon_DRRR,829.7, hit,2,2
825,6, T_Scon, T_Scon_UGLG,545.1, hit,1,0
826,6, T_Scon, T_Scon_DRRR,300.6, hit,2,0
827,6, T_Scon, T_Scon_UGLG,608.1, hit,1,0
828,6, T_Sinc, T_Sinc_DGLG,383.4, hit,1,0
829,6, T_Scon, T_Scon_UGLG,470.6, hit,1,0
830,6, T_Scon, T_Scon_UGLG,318.1, hit,1,0
831,6, T_Scon, T_Scon_DRRR,377.5, hit,2,0
832,6, T_Scon, T_Scon_DRRR,340.9, hit,2,0
833,6, T_Sinc, T_Sinc_URRR,376.4, incorrect,1,1
834,6, T_Scon, T_Scon_UGLG,291.8, hit,1,0
835,6, T_Sinc, T_Sinc_URRR,555.2, hit,2,0
836,6, T_Sinc, T_Sinc_URRR,318.7, hit,2,0
837,6, T_Scon, T_Scon_DRRR,242.1, incorrect,1,1
838,6, T_Scon, T_Scon_DRRR,593.5, hit,2,0
839,6, T_Scon, T_Scon_UGLG,453, hit,1,0
840,6, T_Sinc, T_Sinc_URRR,640.4, hit,2,0
841,6, T_Sinc, T_Sinc_DGLG,483.8, hit,1,0
842,6, T_Sinc, T_Sinc_URRR,635.3, hit,2,0
843,6, T_Scon, T_Scon_DRRR,314.8, hit,2,0
844,6, T_Scon, T_Scon_UGLG,326.1, hit,1,0
845,6, T_Sinc, T_Sinc_DGLG,533.6, hit,1,0
846,6, T_Scon, T_Scon_UGLG,441.1, hit,1,0
847,6, T_Sinc, T_Sinc_URRR,460.5, hit,2,0
848,6, T_Sinc, T_Sinc_DGLG,523.9, hit,1,0
849,6, T_Scon, T_Scon_DRRR,415.4, hit,2,0
850,6, T_Scon, T_Scon_UGLG,566.8, hit,1,0
851,6, T_Scon, T_Scon_UGLG,494.2, hit,1,0
852,6, T_Scon, T_Scon_UGLG,721.7, hit,1,0
853,6, T_Scon, T_Scon_DRRR,741.1, hit,2,0
854,6, T_Scon, T_Scon_UGLG,636.5, hit,1,0
855,6, T_Sinc, T_Sinc_URRR,523.9, hit,2,0
856,6, T_Sinc, T_Sinc_URRR,439.4, hit,2,0
857,6, T_Scon, T_Scon_UGLG,554.9, hit,1,0
858,6, T_Scon, T_Scon_UGLG,470.2, hit,1,0
859,6, T_Sinc, T_Sinc_DGLG,369.7, incorrect,2,1
860,6, T_Scon, T_Scon_DRRR,653.2, hit,2,0
861,6, T_Scon, T_Scon_DRRR,340.5, hit,2,0
862,6, T_Scon, T_Scon_UGLG,444, hit,1,0
863,6, T_Scon, T_Scon_UGLG,327.5, hit,1,0
864,6, T_Scon, T_Scon_DRRR,363, hit,2,0
865,7, T_Sinc, T_Sinc_URRR,463.7, hit,2,0
866,7, T_Sinc, T_Sinc_DGLG,607.1, hit,1,0
867,7, T_Sinc, T_Sinc_URRR,322.6, hit,2,0
868,7, T_Sinc, T_Sinc_URRR,293.9, hit,2,0
869,7, T_Sinc, T_Sinc_URRR,401.4, hit,2,0
870,7, T_Sinc, T_Sinc_DGLG,252.9, hit,1,0
871,7, T_Sinc, T_Sinc_DGLG,236.2, hit,1,0
872,7, T_Sinc, T_Sinc_URRR,347.7, hit,2,0
873,7, T_Sinc, T_Sinc_URRR,395.2, hit,2,0
874,7, T_Sinc, T_Sinc_DGLG,414.6, hit,1,0
875,7, T_Scon, T_Scon_UGLG,646, hit,1,0
876,7, T_Sinc, T_Sinc_DGLG,489.5, hit,1,0
877,7, T_Scon, T_Scon_UGLG,444.8, hit,1,0
878,7, T_Sinc, T_Sinc_URRR,512.3, hit,2,0
879,7, T_Sinc, T_Sinc_DGLG,483.8, hit,1,0
880,7, T_Sinc, T_Sinc_DGLG,279.3, hit,1,0
881,7, T_Sinc, T_Sinc_DGLG,362.6, hit,1,0
882,7, T_Scon, T_Scon_DRRR,482.2, hit,2,0
883,7, T_Scon, T_Scon_DRRR,501.6, hit,2,0
884,7, T_Sinc, T_Sinc_URRR,472.9, hit,2,0
885,7, T_Scon, T_Scon_UGLG,888.4, incorrect,2,1
886,7, T_Sinc, T_Sinc_URRR,483.9, hit,2,0
887,7, T_Sinc, T_Sinc_DGLG,487.3, hit,1,0
888,7, T_Sinc, T_Sinc_DGLG,442.7, hit,1,0
889,7, T_Sinc, T_Sinc_DGLG,350.1, hit,1,0
890,7, T_Sinc, T_Sinc_DGLG,285.6, hit,1,0
891,7, T_Sinc, T_Sinc_URRR,433, hit,2,0
892,7, T_Sinc, T_Sinc_DGLG,536.4, hit,1,0
893,7, T_Sinc, T_Sinc_URRR,515.9, hit,2,0
894,7, T_Sinc, T_Sinc_URRR,527.4, hit,2,0
895,7, T_Scon, T_Scon_UGLG,590.7, hit,1,0
896,7, T_Sinc, T_Sinc_URRR,442.2, hit,2,0
897,7, T_Scon, T_Scon_DRRR,629.7, hit,2,0
898,7, T_Sinc, T_Sinc_DGLG,537.1, hit,1,0
899,7, T_Sinc, T_Sinc_DGLG,540.5, hit,1,0
900,7, T_Scon, T_Scon_UGLG,304, hit,1,0
901,7, T_Sinc, T_Sinc_DGLG,439.2, hit,1,0
902,7, T_Sinc, T_Sinc_DGLG,482.6, hit,1,0
903,7, T_Sinc, T_Sinc_DGLG,318, hit,1,0
904,7, T_Scon, T_Scon_UGLG,377.4, incorrect,2,1
905,7, T_Sinc, T_Sinc_DGLG,484.9, hit,1,0
906,7, T_Sinc, T_Sinc_DGLG,676.3, hit,1,0
907,7, T_Scon, T_Scon_UGLG,419.7, hit,1,0
908,7, T_Scon, T_Scon_DRRR,435.2, hit,2,0
909,7, T_Sinc, T_Sinc_URRR,558.7, hit,2,0
910,7, T_Sinc, T_Sinc_DGLG,498.1, hit,1,0
911,7, T_Sinc, T_Sinc_URRR,529.5, hit,2,0
912,7, T_Sinc, T_Sinc_DGLG,525, hit,1,0
913,7, T_Sinc, T_Sinc_URRR,520.4, hit,2,0
914,7, T_Sinc, T_Sinc_URRR,559.8, hit,2,0
915,7, T_Sinc, T_Sinc_DGLG,563.3, hit,1,0
916,7, T_Sinc, T_Sinc_URRR,654.7, hit,2,0
917,7, T_Sinc, T_Sinc_URRR,378.1, hit,2,0
918,7, T_Sinc, T_Sinc_URRR,397.6, hit,2,0
919,7, T_Sinc, T_Sinc_URRR,329, hit,2,0
920,7, T_Scon, T_Scon_DRRR,604.5, hit,2,0
921,7, T_Scon, T_Scon_UGLG,371.9, hit,1,0
922,7, T_Sinc, T_Sinc_DGLG,327.3, hit,1,0
923,7, T_Scon, T_Scon_DRRR,398.8, hit,2,0
924,7, T_Sinc, T_Sinc_URRR,334.2, hit,2,0
925,7, T_Sinc, T_Sinc_DGLG,373.6, hit,1,0
926,7, T_Sinc, T_Sinc_DGLG,613.1, hit,1,0
927,7, T_Sinc, T_Sinc_DGLG,464.4, hit,1,0
928,7, T_Sinc, T_Sinc_URRR,391.9, hit,2,0
929,7, T_Scon, T_Scon_UGLG,843.4, hit,1,2
930,7, T_Sinc, T_Sinc_URRR,866.7, hit,2,2
931,7, T_Sinc, T_Sinc_URRR,630.2, hit,2,0
932,7, T_Sinc, T_Sinc_DGLG,329.7, hit,1,0
933,7, T_Sinc, T_Sinc_URRR,657.1, hit,2,0
934,7, T_Sinc, T_Sinc_URRR,548.5, hit,2,0
935,7, T_Sinc, T_Sinc_DGLG,364, hit,1,0
936,7, T_Sinc, T_Sinc_DGLG,575.4, hit,1,0
937,7, T_Sinc, T_Sinc_DGLG,318.6, hit,1,0
938,7, T_Scon, T_Scon_DRRR,450, hit,2,0
939,7, T_Sinc, T_Sinc_URRR,441.5, hit,2,0
940,7, T_Scon, T_Scon_DRRR,380.9, hit,2,0
941,7, T_Sinc, T_Sinc_DGLG,400.3, hit,1,0
942,7, T_Sinc, T_Sinc_DGLG,491.7, hit,1,0
943,7, T_Sinc, T_Sinc_URRR,747.2, hit,2,0
944,7, T_Scon, T_Scon_DRRR,638.6, hit,2,0
945,7, T_Sinc, T_Sinc_URRR,246, hit,2,0
946,7, T_Sinc, T_Sinc_DGLG,365.5, hit,1,0
947,7, T_Scon, T_Scon_DRRR,409, hit,2,0
948,7, T_Scon, T_Scon_DRRR,408.3, hit,2,0
949,7, T_Sinc, T_Sinc_URRR,339.8, hit,2,0
950,7, T_Scon, T_Scon_DRRR,439.3, hit,2,0
951,7, T_Sinc, T_Sinc_URRR,298.7, hit,2,0
952,7, T_Sinc, T_Sinc_DGLG,430.1, hit,1,0
953,7, T_Sinc, T_Sinc_URRR,569.6, hit,2,0
954,7, T_Scon, T_Scon_UGLG,349, hit,1,0
955,7, T_Sinc, T_Sinc_URRR,576.4, hit,2,0
956,7, T_Sinc, T_Sinc_DGLG,719.9, hit,1,0
957,7, T_Sinc, T_Sinc_DGLG,315.3, hit,1,0
958,7, T_Scon, T_Scon_DRRR,598.7, hit,2,0
959,7, T_Sinc, T_Sinc_DGLG,678.2, hit,1,0
960,7, T_Sinc, T_Sinc_DGLG,321.7, hit,1,0
961,7, T_Sinc, T_Sinc_URRR,365.1, hit,2,0
962,7, T_Sinc, T_Sinc_URRR,616.5, hit,2,0
963,7, T_Sinc, T_Sinc_URRR,592, hit,2,0
964,7, T_Scon, T_Scon_UGLG,563.4, hit,1,0
965,7, T_Scon, T_Scon_UGLG,466.8, hit,1,0
966,7, T_Sinc, T_Sinc_URRR,870.3, hit,2,2
967,7, T_Sinc, T_Sinc_URRR,329.8, hit,2,0
968,7, T_Sinc, T_Sinc_DGLG,413.1, hit,1,0
969,7, T_Sinc, T_Sinc_URRR,452.6, hit,2,0
970,7, T_Sinc, T_Sinc_DGLG,588, hit,1,0
971,7, T_Sinc, T_Sinc_URRR,443.4, hit,2,0
972,7, T_Sinc, T_Sinc_DGLG,342.9, hit,1,0
973,7, T_Sinc, T_Sinc_URRR,562.1, hit,2,0
974,7, T_Sinc, T_Sinc_DGLG,549.4, hit,1,0
975,7, T_Sinc, T_Sinc_DGLG,428.9, hit,1,0
976,7, T_Sinc, T_Sinc_DGLG,448.4, hit,1,0
977,7, T_Sinc, T_Sinc_URRR,619.7, hit,2,0
978,7, T_Sinc, T_Sinc_URRR,619.2, hit,2,0
979,7, T_Scon, T_Scon_UGLG,366.7, hit,1,0
980,7, T_Scon, T_Scon_DRRR,494.1, hit,2,0
981,7, T_Sinc, T_Sinc_URRR,425.5, hit,2,0
982,7, T_Scon, T_Scon_UGLG,357, hit,1,0
983,7, T_Scon, T_Scon_UGLG,440.4, hit,1,0
984,7, T_Sinc, T_Sinc_DGLG,351.8, hit,1,0
985,7, T_Scon, T_Scon_DRRR,443.3, hit,2,0
986,7, T_Scon, T_Scon_UGLG,778.7, hit,1,0
987,7, T_Scon, T_Scon_UGLG,358.1, hit,1,0
988,7, T_Scon, T_Scon_DRRR,281.6, hit,2,0
989,7, T_Scon, T_Scon_DRRR,253, incorrect,1,1
990,7, T_Sinc, T_Sinc_DGLG,348.5, hit,1,0
991,7, T_Sinc, T_Sinc_DGLG,407.9, hit,1,0
992,7, T_Sinc, T_Sinc_URRR,403.3, hit,2,0
993,7, T_Sinc, T_Sinc_URRR,942.8, hit,2,2
994,7, T_Sinc, T_Sinc_URRR,382.2, hit,2,0
995,7, T_Sinc, T_Sinc_URRR,285.6, hit,2,0
996,7, T_Scon, T_Scon_DRRR,273.1, incorrect,1,1
997,7, T_Sinc, T_Sinc_DGLG,292.6, hit,1,0
998,7, T_Sinc, T_Sinc_DGLG,587.9, hit,1,0
999,7, T_Scon, T_Scon_UGLG,414.9, hit,1,0
1000,7, T_Sinc, T_Sinc_DGLG,350.3, hit,1,0
1001,7, T_Sinc, T_Sinc_URRR,937.7, hit,2,2
1002,7, T_Sinc, T_Sinc_URRR,645.2, hit,2,0
1003,7, T_Sinc, T_Sinc_URRR,440.5, hit,2,0
1004,7, T_Sinc, T_Sinc_DGLG,420, hit,1,0
1005,7, T_Sinc, T_Sinc_DGLG,647.5, hit,1,0
1006,7, T_Sinc, T_Sinc_URRR,466.9, hit,2,0
1007,7, T_Sinc, T_Sinc_URRR,438.3, hit,2,0
1008,8, T_Sinc, T_Sinc_DGLG,531.2, hit,1,0
1009,8, T_Sinc, T_Sinc_URRR,526.6, hit,2,0
1010,8, T_Sinc, T_Sinc_DGLG,542.1, hit,1,0
1011,8, T_Sinc, T_Sinc_URRR,369.4, hit,2,0
1012,8, T_Sinc, T_Sinc_DGLG,348.9, hit,1,0
1013,8, T_Sinc, T_Sinc_DGLG,296.3, hit,1,0
1014,8, T_Sinc, T_Sinc_URRR,347.8, hit,2,0
1015,8, T_Sinc, T_Sinc_DGLG,527.2, hit,1,0
1016,8, T_Scon, T_Scon_UGLG,478.7, hit,1,0
1017,8, T_Sinc, T_Sinc_DGLG,406, hit,1,0
1018,8, T_Scon, T_Scon_UGLG,377.5, hit,1,0
1019,8, T_Sinc, T_Sinc_URRR,377, hit,2,0
1020,8, T_Scon, T_Scon_DRRR,332.5, hit,2,0
1021,8, T_Sinc, T_Sinc_URRR,427.8, hit,2,0
1022,8, T_Scon, T_Scon_UGLG,407.3, hit,1,0
1023,8, T_Sinc, T_Sinc_URRR,602.8, hit,2,0
1024,8, T_Sinc, T_Sinc_DGLG,494.1, hit,1,0
1025,8, T_Sinc, T_Sinc_URRR,489.6, hit,2,0
1026,8, T_Sinc, T_Sinc_DGLG,425.1, hit,1,0
1027,8, T_Sinc, T_Sinc_URRR,524.4, hit,2,0
1028,8, T_Sinc, T_Sinc_DGLG,303.9, hit,1,0
1029,8, T_Sinc, T_Sinc_URRR,371.4, hit,2,0
1030,8, T_Scon, T_Scon_DRRR,638.8, hit,2,0
1031,8, T_Sinc, T_Sinc_URRR,594.2, hit,2,0
1032,8, T_Sinc, T_Sinc_DGLG,917.7, hit,1,2
1033,8, T_Sinc, T_Sinc_URRR,457.2, hit,2,0
1034,8, T_Sinc, T_Sinc_URRR,1020.5, hit,2,2
1035,8, T_Scon, T_Scon_DRRR,456, hit,2,0
1036,8, T_Sinc, T_Sinc_URRR,415.4, hit,2,0
1037,8, T_Sinc, T_Sinc_URRR,370.8, hit,2,0
1038,8, T_Sinc, T_Sinc_DGLG,502.3, hit,1,0
1039,8, T_Scon, T_Scon_DRRR,553.8, hit,2,0
1040,8, T_Scon, T_Scon_DRRR,449.2, hit,2,0
1041,8, T_Sinc, T_Sinc_DGLG,1519.4, hit,1,2
1042,8, T_Scon, T_Scon_UGLG,450.7, hit,1,0
1043,8, T_Scon, T_Scon_DRRR,306.1, hit,2,0
1044,8, T_Sinc, T_Sinc_DGLG,413.4, hit,1,0
1045,8, T_Sinc, T_Sinc_URRR,377, hit,2,0
1046,8, T_Sinc, T_Sinc_URRR,484.4, hit,2,0
1047,8, T_Sinc, T_Sinc_DGLG,343.9, hit,1,0
1048,8, T_Sinc, T_Sinc_URRR,779.2, hit,2,0
1049,8, T_Sinc, T_Sinc_URRR,414.8, hit,2,0
1050,8, T_Scon, T_Scon_UGLG,458.1, hit,1,0
1051,8, T_Sinc, T_Sinc_URRR,373.6, hit,2,0
1052,8, T_Sinc, T_Sinc_DGLG,520.4, hit,1,0
1053,8, T_Scon, T_Scon_UGLG,415.9, hit,1,0
1054,8, T_Sinc, T_Sinc_DGLG,335.4, hit,1,0
1055,8, T_Sinc, T_Sinc_URRR,450.7, hit,2,0
1056,8, T_Sinc, T_Sinc_DGLG,466.2, hit,1,0
1057,8, T_Sinc, T_Sinc_DGLG,437.7, hit,1,0
1058,8, T_Scon, T_Scon_DRRR,429, hit,2,0
1059,8, T_Scon, T_Scon_DRRR,464.5, hit,2,0
1060,8, T_Sinc, T_Sinc_DGLG,260, hit,1,0
1061,8, T_Sinc, T_Sinc_URRR,463.3, hit,2,0
1062,8, T_Scon, T_Scon_UGLG,430.8, hit,1,0
1063,8, T_Scon, T_Scon_UGLG,462.3, hit,1,0
1064,8, T_Sinc, T_Sinc_URRR,513.6, hit,2,0
1065,8, T_Sinc, T_Sinc_DGLG,421.1, hit,1,0
1066,8, T_Sinc, T_Sinc_URRR,360.6, hit,2,0
1067,8, T_Scon, T_Scon_DRRR,732, hit,2,0
1068,8, T_Sinc, T_Sinc_URRR,379.4, hit,2,0
1069,8, T_Sinc, T_Sinc_URRR,366.9, hit,2,0
1070,8, T_Sinc, T_Sinc_URRR,486.4, hit,2,0
1071,8, T_Sinc, T_Sinc_DGLG,525.7, hit,1,0
1072,8, T_Sinc, T_Sinc_URRR,393.2, hit,2,0
1073,8, T_Scon, T_Scon_UGLG,436.7, hit,1,0
1074,8, T_Sinc, T_Sinc_DGLG,472, hit,1,0
1075,8, T_Scon, T_Scon_DRRR,435.5, hit,2,0
1076,8, T_Sinc, T_Sinc_URRR,499, hit,2,0
1077,8, T_Scon, T_Scon_DRRR,506.1, hit,2,0
1078,8, T_Sinc, T_Sinc_DGLG,293.5, hit,1,0
1079,8, T_Sinc, T_Sinc_URRR,737, hit,2,0
1080,8, T_Sinc, T_Sinc_DGLG,492.4, hit,1,0
1081,8, T_Sinc, T_Sinc_URRR,475.8, hit,2,0
1082,8, T_Sinc, T_Sinc_URRR,395.3, hit,2,0
1083,8, T_Sinc, T_Sinc_URRR,382.8, hit,2,0
1084,8, T_Sinc, T_Sinc_DGLG,442.1, hit,1,0
1085,8, T_Sinc, T_Sinc_DGLG,469.6, hit,1,0
1086,8, T_Scon, T_Scon_UGLG,525.1, hit,1,0
1087,8, T_Scon, T_Scon_UGLG,360.4, hit,1,0
1088,8, T_Sinc, T_Sinc_DGLG,511.9, hit,1,0
1089,8, T_Sinc, T_Sinc_DGLG,527.4, hit,1,0
1090,8, T_Sinc, T_Sinc_URRR,434.8, hit,2,0
1091,8, T_Sinc, T_Sinc_DGLG,426.2, hit,1,0
1092,8, T_Sinc, T_Sinc_URRR,845.7, hit,2,0
1093,8, T_Sinc, T_Sinc_URRR,457.1, hit,2,0
1094,8, T_Scon, T_Scon_UGLG,492.5, hit,1,0
1095,8, T_Sinc, T_Sinc_DGLG,444, hit,1,0
1096,8, T_Sinc, T_Sinc_DGLG,335.4, hit,1,0
1097,8, T_Sinc, T_Sinc_DGLG,386.8, hit,1,0
1098,8, T_Scon, T_Scon_UGLG,374.2, hit,1,0
1099,8, T_Sinc, T_Sinc_URRR,401.7, hit,2,0
1100,8, T_Scon, T_Scon_DRRR,381.2, hit,2,0
1101,8, T_Scon, T_Scon_UGLG,392.6, hit,1,0
1102,8, T_Scon, T_Scon_DRRR,948, hit,2,2
1103,8, T_Sinc, T_Sinc_DGLG,1043.5, hit,1,2
1104,8, T_Scon, T_Scon_DRRR,494.9, incorrect,1,1
1105,8, T_Sinc, T_Sinc_URRR,474.3, hit,2,0
1106,8, T_Sinc, T_Sinc_DGLG,501.8, hit,1,0
1107,8, T_Sinc, T_Sinc_DGLG,433.3, hit,1,0
1108,8, T_Sinc, T_Sinc_URRR,424.6, hit,2,0
1109,8, T_Sinc, T_Sinc_DGLG,584.1, hit,1,0
1110,8, T_Scon, T_Scon_UGLG,523.6, hit,1,0
1111,8, T_Sinc, T_Sinc_URRR,358.9, hit,2,0
1112,8, T_Scon, T_Scon_DRRR,418.4, incorrect,1,1
1113,8, T_Sinc, T_Sinc_DGLG,781.6, hit,1,0
1114,8, T_Sinc, T_Sinc_DGLG,421, hit,1,0
1115,8, T_Sinc, T_Sinc_DGLG,300.4, hit,1,0
1116,8, T_Scon, T_Scon_DRRR,379.9, hit,2,0
1117,8, T_Sinc, T_Sinc_DGLG,611.3, hit,1,0
1118,8, T_Sinc, T_Sinc_URRR,758.7, hit,2,0
1119,8, T_Scon, T_Scon_DRRR,722.2, hit,2,0
1120,8, T_Sinc, T_Sinc_DGLG,401.7, hit,1,0
1121,8, T_Sinc, T_Sinc_URRR,545, hit,2,0
1122,8, T_Sinc, T_Sinc_URRR,320.5, hit,2,0
1123,8, T_Sinc, T_Sinc_DGLG,364, hit,1,0
1124,8, T_Scon, T_Scon_DRRR,591.3, hit,2,0
1125,8, T_Sinc, T_Sinc_DGLG,546.8, hit,1,0
1126,8, T_Sinc, T_Sinc_DGLG,694.3, hit,1,0
1127,8, T_Sinc, T_Sinc_URRR,457.6, hit,2,0
1128,8, T_Sinc, T_Sinc_URRR,357.1, hit,2,0
1129,8, T_Sinc, T_Sinc_DGLG,500.5, hit,1,0
1130,8, T_Sinc, T_Sinc_DGLG,380, hit,1,0
1131,8, T_Sinc, T_Sinc_URRR,591.4, hit,2,0
1132,8, T_Sinc, T_Sinc_DGLG,482.8, hit,1,0
1133,8, T_Sinc, T_Sinc_URRR,614.3, hit,2,0
1134,8, T_Scon, T_Scon_UGLG,589.7, hit,1,0
1135,8, T_Sinc, T_Sinc_DGLG,649.1, hit,1,0
1136,8, T_Sinc, T_Sinc_URRR,340.6, hit,2,0
1137,8, T_Sinc, T_Sinc_DGLG,344.1, hit,1,0
1138,8, T_Sinc, T_Sinc_DGLG,499.5, hit,1,0
1139,8, T_Sinc, T_Sinc_DGLG,470.9, hit,1,0
1140,8, T_Sinc, T_Sinc_URRR,362.4, hit,2,0
1141,8, T_Scon, T_Scon_UGLG,541.7, hit,1,0
1142,8, T_Sinc, T_Sinc_URRR,569.2, hit,2,0
1143,8, T_Sinc, T_Sinc_DGLG,308.7, hit,1,0
1144,8, T_Sinc, T_Sinc_URRR,464.1, hit,2,0
1145,8, T_Sinc, T_Sinc_DGLG,303.5, hit,1,0
1146,8, T_Sinc, T_Sinc_URRR,671, hit,2,0
1147,8, T_Sinc, T_Sinc_URRR,542.4, hit,2,0
1148,8, T_Sinc, T_Sinc_URRR,349.8, hit,2,0
1149,9, T_Sinc, T_Sinc_DGLG,358.9, hit,1,0
1150,9, T_Sinc, T_Sinc_DGLG,442.4, hit,1,0
1151,9, T_Sinc, T_Sinc_DGLG,337.7, hit,1,0
1152,9, T_Sinc, T_Sinc_DGLG,309.2, hit,1,0
1153,9, T_Sinc, T_Sinc_URRR,816.7, hit,2,0
1154,9, T_Sinc, T_Sinc_DGLG,424, hit,1,0
1155,9, T_Sinc, T_Sinc_URRR,499.5, hit,2,0
1156,9, T_Sinc, T_Sinc_URRR,571, hit,2,0
1157,9, T_Sinc, T_Sinc_URRR,382.4, hit,2,0
1158,9, T_Sinc, T_Sinc_URRR,353.8, hit,2,0
1159,9, T_Scon, T_Scon_UGLG,401.3, hit,1,0
1160,9, T_Sinc, T_Sinc_DGLG,332.8, hit,1,0
1161,9, T_Sinc, T_Sinc_DGLG,348.1, hit,1,0
1162,9, T_Sinc, T_Sinc_DGLG,439.6, hit,1,0
1163,9, T_Sinc, T_Sinc_URRR,403.1, hit,2,0
1164,9, T_Scon, T_Scon_DRRR,654.4, hit,2,0
1165,9, T_Sinc, T_Sinc_URRR,529.9, hit,2,0
1166,9, T_Scon, T_Scon_UGLG,501.4, hit,1,0
1167,9, T_Sinc, T_Sinc_DGLG,416.7, hit,1,0
1168,9, T_Sinc, T_Sinc_URRR,448.2, hit,2,0
1169,9, T_Sinc, T_Sinc_DGLG,523.7, hit,1,0
1170,9, T_Sinc, T_Sinc_DGLG,415.1, hit,1,0
1171,9, T_Sinc, T_Sinc_DGLG,366.5, hit,1,0
1172,9, T_Sinc, T_Sinc_DGLG,330, hit,1,0
1173,9, T_Scon, T_Scon_DRRR,469.4, hit,2,0
1174,9, T_Sinc, T_Sinc_DGLG,372.8, hit,1,0
1175,9, T_Scon, T_Scon_UGLG,772.3, hit,1,0
1176,9, T_Sinc, T_Sinc_DGLG,407.7, hit,1,0
1177,9, T_Sinc, T_Sinc_DGLG,435.1, hit,1,0
1178,9, T_Sinc, T_Sinc_URRR,574.6, hit,2,0
1179,9, T_Sinc, T_Sinc_URRR,698, hit,2,0
1180,9, T_Sinc, T_Sinc_URRR,613.4, hit,2,0
1181,9, T_Sinc, T_Sinc_DGLG,472.9, hit,1,0
1182,9, T_Sinc, T_Sinc_DGLG,380.4, hit,1,0
1183,9, T_Sinc, T_Sinc_DGLG,323.8, hit,1,0
1184,9, T_Sinc, T_Sinc_URRR,419.2, hit,2,0
1185,9, T_Sinc, T_Sinc_DGLG,910.4, hit,1,2
1186,9, T_Scon, T_Scon_DRRR,505.9, hit,2,0
1187,9, T_Sinc, T_Sinc_DGLG,381.2, hit,1,0
1188,9, T_Scon, T_Scon_DRRR,288.7, hit,2,0
1189,9, T_Sinc, T_Sinc_URRR,460.2, hit,2,0
1190,9, T_Sinc, T_Sinc_DGLG,363.5, hit,1,0
1191,9, T_Sinc, T_Sinc_URRR,439, hit,2,0
1192,9, T_Scon, T_Scon_DRRR,678.4, hit,2,0
1193,9, T_Scon, T_Scon_DRRR,385.9, hit,2,0
1194,9, T_Sinc, T_Sinc_URRR,365.3, incorrect,1,1
1195,9, T_Sinc, T_Sinc_URRR,516.7, hit,2,0
1196,9, T_Sinc, T_Sinc_URRR,492.2, hit,2,0
1197,9, T_Sinc, T_Sinc_URRR,367.6, hit,2,0
1198,9, T_Sinc, T_Sinc_URRR,375, hit,2,0
1199,9, T_Sinc, T_Sinc_URRR,330.5, hit,2,0
1200,9, T_Scon, T_Scon_UGLG,517.9, hit,1,0
1201,9, T_Sinc, T_Sinc_DGLG,609.3, hit,1,0
1202,9, T_Sinc, T_Sinc_URRR,788.8, hit,2,0
1203,9, T_Sinc, T_Sinc_URRR,624.2, hit,2,0
1204,9, T_Sinc, T_Sinc_DGLG,423.7, hit,1,0
1205,9, T_Scon, T_Scon_UGLG,531.1, hit,1,0
1206,9, T_Sinc, T_Sinc_DGLG,354.6, hit,1,0
1207,9, T_Sinc, T_Sinc_URRR,430, hit,2,0
1208,9, T_Sinc, T_Sinc_DGLG,457.4, hit,1,0
1209,9, T_Sinc, T_Sinc_URRR,540.9, hit,2,0
1210,9, T_Scon, T_Scon_UGLG,616.3, hit,1,0
1211,9, T_Sinc, T_Sinc_URRR,895.7, hit,2,2
1212,9, T_Scon, T_Scon_DRRR,627.1, hit,2,0
1213,9, T_Sinc, T_Sinc_DGLG,514.6, hit,1,0
1214,9, T_Sinc, T_Sinc_URRR,438, hit,2,0
1215,9, T_Sinc, T_Sinc_DGLG,569.5, hit,1,0
1216,9, T_Sinc, T_Sinc_DGLG,345, hit,1,0
1217,9, T_Sinc, T_Sinc_URRR,756.3, hit,2,0
1218,9, T_Sinc, T_Sinc_URRR,523.8, hit,2,0
1219,9, T_Sinc, T_Sinc_DGLG,759.3, hit,1,0
1220,9, T_Sinc, T_Sinc_URRR,358.7, hit,2,0
1221,9, T_Sinc, T_Sinc_DGLG,561.8, hit,1,0
1222,9, T_Scon, T_Scon_UGLG,381.3, hit,1,0
1223,9, T_Sinc, T_Sinc_URRR,532.6, hit,2,0
1224,9, T_Sinc, T_Sinc_URRR,432.1, hit,2,0
1225,9, T_Sinc, T_Sinc_DGLG,379.6, hit,1,0
1226,9, T_Sinc, T_Sinc_URRR,519.1, hit,2,0
1227,9, T_Sinc, T_Sinc_DGLG,802.4, incorrect,2,1
1228,9, T_Sinc, T_Sinc_DGLG,513.9, hit,1,0
1229,9, T_Sinc, T_Sinc_DGLG,453.4, hit,1,0
1230,9, T_Sinc, T_Sinc_URRR,376.7, hit,2,0
1231,9, T_Scon, T_Scon_UGLG,556.2, hit,1,0
1232,9, T_Sinc, T_Sinc_URRR,431.7, hit,2,0
1233,9, T_Sinc, T_Sinc_URRR,395, hit,2,0
1234,9, T_Sinc, T_Sinc_DGLG,486.5, hit,1,0
1235,9, T_Scon, T_Scon_DRRR,522, hit,2,0
1236,9, T_Scon, T_Scon_DRRR,1069.3, hit,2,2
1237,9, T_Scon, T_Scon_DRRR,404.8, hit,2,0
1238,9, T_Sinc, T_Sinc_URRR,748.3, hit,2,0
1239,9, T_Scon, T_Scon_UGLG,551.7, hit,1,0
1240,9, T_Scon, T_Scon_UGLG,395.1, hit,1,0
1241,9, T_Sinc, T_Sinc_URRR,482.6, hit,2,0
1242,9, T_Scon, T_Scon_UGLG,534, hit,1,0
1243,9, T_Scon, T_Scon_UGLG,265.4, hit,1,0
1244,9, T_Sinc, T_Sinc_DGLG,376.9, hit,1,0
1245,9, T_Sinc, T_Sinc_DGLG,356.3, hit,1,0
1246,9, T_Sinc, T_Sinc_DGLG,383.8, hit,1,0
1247,9, T_Sinc, T_Sinc_DGLG,355.2, hit,1,0
1248,9, T_Sinc, T_Sinc_URRR,470.6, hit,2,0
1249,9, T_Scon, T_Scon_UGLG,534.1, hit,1,0
1250,9, T_Sinc, T_Sinc_DGLG,281.4, hit,1,0
1251,9, T_Sinc, T_Sinc_DGLG,300.9, hit,1,0
1252,9, T_Scon, T_Scon_DRRR,480.4, hit,2,0
1253,9, T_Sinc, T_Sinc_DGLG,735.9, hit,1,0
1254,9, T_Scon, T_Scon_UGLG,563.2, incorrect,2,1
1255,9, T_Sinc, T_Sinc_URRR,998.7, hit,2,2
1256,9, T_Sinc, T_Sinc_DGLG,446.2, hit,1,0
1257,9, T_Sinc, T_Sinc_DGLG,561.3, hit,1,0
1258,9, T_Scon, T_Scon_UGLG,412.7, hit,1,0
1259,9, T_Sinc, T_Sinc_URRR,336.1, hit,2,0
1260,9, T_Sinc, T_Sinc_URRR,507.6, hit,2,0
1261,9, T_Sinc, T_Sinc_DGLG,403, hit,1,0
1262,9, T_Sinc, T_Sinc_URRR,878.5, hit,2,2
1263,9, T_Scon, T_Scon_DRRR,473.9, hit,2,0
1264,9, T_Scon, T_Scon_DRRR,373.3, hit,2,0
1265,9, T_Scon, T_Scon_DRRR,308.8, hit,2,0
1266,9, T_Scon, T_Scon_DRRR,280.3, hit,2,0
1267,9, T_Sinc, T_Sinc_DGLG,383.6, hit,1,0
1268,9, T_Sinc, T_Sinc_URRR,399.1, hit,2,0
1269,9, T_Sinc, T_Sinc_URRR,714.6, hit,2,0
1270,9, T_Sinc, T_Sinc_DGLG,297.9, hit,1,0
1271,9, T_Sinc, T_Sinc_URRR,441.4, hit,2,0
1272,9, T_Scon, T_Scon_DRRR,820.9, hit,2,2
1273,9, T_Sinc, T_Sinc_DGLG,408.2, hit,1,0
1274,9, T_Scon, T_Scon_DRRR,467.7, hit,2,0
1275,9, T_Sinc, T_Sinc_URRR,579.2, hit,2,0
1276,9, T_Scon, T_Scon_UGLG,334.6, hit,1,0
1277,9, T_Scon, T_Scon_UGLG,298, hit,1,0
1278,9, T_Scon, T_Scon_DRRR,453.5, hit,2,0
1279,9, T_Scon, T_Scon_UGLG,400.9, hit,1,0
1280,9, T_Sinc, T_Sinc_DGLG,696.3, hit,1,0
1281,9, T_Sinc, T_Sinc_URRR,383.8, hit,2,0
1282,9, T_Sinc, T_Sinc_DGLG,891.2, hit,1,2
1283,9, T_Sinc, T_Sinc_URRR,430.7, hit,2,0
1284,9, T_Sinc, T_Sinc_URRR,434.1, hit,2,0
1285,9, T_Sinc, T_Sinc_DGLG,469.5, hit,1,0
1286,9, T_Sinc, T_Sinc_URRR,557, hit,2,0
1287,9, T_Sinc, T_Sinc_URRR,544.4, hit,2,0
1288,9, T_Sinc, T_Sinc_URRR,487.8, hit,2,0
1289,9, T_Sinc, T_Sinc_DGLG,435.2, hit,1,0
1290,9, T_Sinc, T_Sinc_URRR,442.7, hit,2,0
1291,9, T_Sinc, T_Sinc_URRR,526.1, hit,2,0
1292,9, T_Sinc, T_Sinc_DGLG,433.6, hit,1,0
