trial_index, block, condition, full_condition_code, RT, response_type, response_key, error_outlier
1, 1, T_Sinc, T_Sinc_DGLG, 562.9, hit, 1, 0
2, 1, T_Sinc, T_Sinc_URRR, 338.4, hit, 2, 0
3, 1, T_Scon, T_Scon_DRRR, 377.8, incorrect, 1, 1
4, 1, T_Scon, T_Scon_DRRR, 509.1, hit, 2, 0
5, 1, T_Sinc, T_Sinc_URRR, 472.6, hit, 2, 0
6, 1, T_Scon, T_Scon_UGLG, 420.1, hit, 1, 0
7, 1, T_Sinc, T_Sinc_DGLG, 535.4, hit, 1, 0
8, 1, T_Sinc, T_Sinc_URRR, 394.9, hit, 2, 0
9, 1, T_Sinc, T_Sinc_DGLG, 438.4, hit, 1, 0
10, 1, T_Sinc, T_Sinc_URRR, 317.9, hit, 2, 0
11, 1, T_Sinc, T_Sinc_DGLG, 449.2, hit, 1, 0
12, 1, T_Sinc, T_Sinc_URRR, 472.7, hit, 2, 0
13, 1, T_Sinc, T_Sinc_DGLG, 380.1, hit, 1, 0
14, 1, T_Scon, T_Scon_UGLG, 411.5, hit, 1, 0
15, 1, T_Scon, T_Scon_UGLG, 407.0, hit, 1, 0
16, 1, T_Scon, T_Scon_UGLG, 306.4, hit, 1, 0
17, 1, T_Scon, T_Scon_UGLG, 317.9, hit, 1, 0
18, 1, T_Scon, T_Scon_DRRR, 305.3, hit, 2, 0
19, 1, T_Scon, T_Scon_UGLG, 344.7, hit, 1, 0
20, 1, T_Sinc, T_Sinc_URRR, 500.2, hit, 2, 0
21, 1, T_Sinc, T_Sinc_URRR, 539.6, hit, 2, 0
22, 1, T_Sinc, T_Sinc_URRR, 439.1, hit, 2, 0
23, 1, T_Sinc, T_Sinc_DGLG, 382.5, hit, 1, 0
24, 1, T_Sinc, T_Sinc_URRR, 473.9, hit, 2, 0
25, 1, T_Sinc, T_Sinc_DGLG, 493.4, hit, 1, 0
26, 1, T_Scon, T_Scon_UGLG, 376.9, hit, 1, 0
27, 1, T_Sinc, T_Sinc_URRR, 460.3, hit, 2, 0
28, 1, T_Scon, T_Scon_UGLG, 455.7, hit, 1, 0
29, 1, T_Sinc, T_Sinc_URRR, 395.1, hit, 2, 0
30, 1, T_Scon, T_Scon_DRRR, 382.5, hit, 2, 0
31, 1, T_Sinc, T_Sinc_URRR, 378.0, hit, 2, 0
32, 1, T_Sinc, T_Sinc_DGLG, 353.4, hit, 1, 0
33, 1, T_Scon, T_Scon_DRRR, 404.9, hit, 2, 0
34, 1, T_Sinc, T_Sinc_URRR, 408.3, hit, 2, 0
35, 1, T_Scon, T_Scon_UGLG, 383.7, hit, 1, 0
36, 1, T_Scon, T_Scon_DRRR, 515.2, hit, 2, 0
37, 1, T_Sinc, T_Sinc_DGLG, 530.4, hit, 1, 0
38, 1, T_Scon, T_Scon_UGLG, 429.8, hit, 1, 0
39, 1, T_Scon, T_Scon_UGLG, 317.2, hit, 1, 0
40, 1, T_Scon, T_Scon_DRRR, 284.7, hit, 2, 0
41, 1, T_Sinc, T_Sinc_DGLG, 860.1, hit, 1, 2
42, 1, T_Sinc, T_Sinc_URRR, 291.5, hit, 2, 0
43, 1, T_Scon, T_Scon_UGLG, 379.0, hit, 1, 0
44, 1, T_Scon, T_Scon_DRRR, 426.4, hit, 2, 0
45, 1, T_Scon, T_Scon_UGLG, 389.8, hit, 1, 0
46, 1, T_Sinc, T_Sinc_URRR, 417.3, hit, 2, 0
47, 1, T_Sinc, T_Sinc_URRR, 380.7, hit, 2, 0
48, 1, T_Scon, T_Scon_DRRR, 648.1, hit, 2, 0
49, 1, T_Sinc, T_Sinc_URRR, 647.6, hit, 2, 0
50, 1, T_Sinc, T_Sinc_DGLG, 475.0, hit, 1, 0
51, 1, T_Scon, T_Scon_DRRR, 414.5, hit, 2, 0
52, 1, T_Sinc, T_Sinc_DGLG, 521.9, hit, 1, 0
53, 1, T_Sinc, T_Sinc_URRR, 401.3, hit, 2, 0
54, 1, T_Scon, T_Scon_UGLG, 524.8, hit, 1, 0
55, 1, T_Sinc, T_Sinc_URRR, 392.3, hit, 2, 0
56, 1, T_Scon, T_Scon_UGLG, 483.6, hit, 1, 0
57, 1, T_Sinc, T_Sinc_URRR, 351.1, hit, 2, 0
58, 1, T_Scon, T_Scon_UGLG, 330.6, hit, 1, 0
59, 1, T_Scon, T_Scon_DRRR, 377.9, hit, 2, 0
60, 1, T_Sinc, T_Sinc_DGLG, 497.4, hit, 1, 0
61, 1, T_Sinc, T_Sinc_DGLG, 604.9, hit, 1, 0
62, 1, T_Sinc, T_Sinc_URRR, 416.2, hit, 2, 0
63, 1, T_Scon, T_Scon_UGLG, 443.7, hit, 1, 0
64, 1, T_Sinc, T_Sinc_URRR, 455.1, hit, 2, 0
65, 1, T_Sinc, T_Sinc_URRR, 346.6, hit, 2, 0
66, 1, T_Scon, T_Scon_DRRR, 294.1, incorrect, 1, 1
67, 1, T_Scon, T_Scon_UGLG, 437.4, hit, 1, 0
68, 1, T_Scon, T_Scon_DRRR, 448.9, hit, 2, 0
69, 1, T_Sinc, T_Sinc_URRR, 508.4, hit, 2, 0
70, 1, T_Scon, T_Scon_UGLG, 531.8, hit, 1, 0
71, 1, T_Sinc, T_Sinc_URRR, 427.2, hit, 2, 0
72, 1, T_Sinc, T_Sinc_URRR, 374.6, hit, 2, 0
73, 1, T_Scon, T_Scon_DRRR, 557.9, hit, 2, 0
74, 1, T_Scon, T_Scon_UGLG, 429.2, hit, 1, 0
75, 1, T_Scon, T_Scon_UGLG, 448.7, hit, 1, 0
76, 1, T_Sinc, T_Sinc_DGLG, 444.1, hit, 1, 0
77, 1, T_Sinc, T_Sinc_URRR, 459.5, hit, 2, 0
78, 1, T_Sinc, T_Sinc_DGLG, 435.0, hit, 1, 0
79, 1, T_Scon, T_Scon_DRRR, 286.4, hit, 2, 0
80, 1, T_Sinc, T_Sinc_URRR, 449.9, hit, 2, 0
81, 1, T_Sinc, T_Sinc_URRR, 473.3, hit, 2, 0
82, 1, T_Scon, T_Scon_UGLG, 444.7, hit, 1, 0
83, 1, T_Scon, T_Scon_UGLG, 428.2, hit, 1, 0
84, 1, T_Sinc, T_Sinc_DGLG, 523.7, hit, 1, 0
85, 1, T_Scon, T_Scon_DRRR, 423.1, hit, 2, 0
86, 1, T_Sinc, T_Sinc_DGLG, 622.5, hit, 1, 0
87, 1, T_Scon, T_Scon_UGLG, 545.9, hit, 1, 0
88, 1, T_Scon, T_Scon_DRRR, 501.4, hit, 2, 0
89, 1, T_Scon, T_Scon_UGLG, 512.8, hit, 1, 0
90, 1, T_Scon, T_Scon_DRRR, 572.2, hit, 2, 0
91, 1, T_Sinc, T_Sinc_DGLG, 523.7, hit, 1, 0
92, 1, T_Scon, T_Scon_DRRR, 459.1, hit, 2, 0
93, 1, T_Scon, T_Scon_UGLG, 418.5, hit, 1, 0
94, 1, T_Scon, T_Scon_DRRR, 262.0, hit, 2, 0
95, 1, T_Scon, T_Scon_DRRR, 377.4, hit, 2, 0
96, 1, T_Sinc, T_Sinc_DGLG, 540.8, hit, 1, 0
97, 1, T_Scon, T_Scon_DRRR, 796.3, hit, 2, 2
98, 1, T_Sinc, T_Sinc_DGLG, 471.8, hit, 1, 0
99, 1, T_Sinc, T_Sinc_URRR, 571.1, hit, 2, 0
100, 1, T_Sinc, T_Sinc_DGLG, 446.6, hit, 1, 0
101, 1, T_Sinc, T_Sinc_URRR, 530.1, hit, 2, 0
102, 1, T_Scon, T_Scon_DRRR, 485.5, hit, 2, 0
103, 1, T_Scon, T_Scon_DRRR, 372.9, hit, 2, 0
104, 1, T_Scon, T_Scon_UGLG, 428.3, hit, 1, 0
105, 1, T_Scon, T_Scon_UGLG, 899.8, hit, 1, 2
106, 1, T_Sinc, T_Sinc_DGLG, 399.2, hit, 1, 0
107, 1, T_Scon, T_Scon_DRRR, 410.6, hit, 2, 0
108, 1, T_Sinc, T_Sinc_URRR, 326.1, hit, 2, 0
109, 1, T_Scon, T_Scon_UGLG, 533.2, hit, 1, 0
110, 1, T_Sinc, T_Sinc_DGLG, 428.7, hit, 1, 0
111, 1, T_Sinc, T_Sinc_DGLG, 332.1, hit, 1, 0
112, 1, T_Sinc, T_Sinc_DGLG, 335.6, hit, 1, 0
113, 1, T_Scon, T_Scon_DRRR, 515.0, hit, 2, 0
114, 1, T_Sinc, T_Sinc_DGLG, 478.4, hit, 1, 0
115, 1, T_Scon, T_Scon_DRRR, 601.9, hit, 2, 0
116, 1, T_Scon, T_Scon_DRRR, 389.3, hit, 2, 0
117, 1, T_Scon, T_Scon_UGLG, 380.7, hit, 1, 0
118, 1, T_Scon, T_Scon_DRRR, 376.2, hit, 2, 0
119, 1, T_Scon, T_Scon_UGLG, 551.6, hit, 1, 0
120, 1, T_Sinc, T_Sinc_URRR, 531.0, hit, 2, 0
121, 1, T_Scon, T_Scon_DRRR, 334.5, hit, 2, 0
122, 1, T_Scon, T_Scon_DRRR, 417.9, hit, 2, 0
123, 1, T_Scon, T_Scon_DRRR, 517.4, hit, 2, 0
124, 1, T_Sinc, T_Sinc_DGLG, 656.8, hit, 1, 0
125, 1, T_Sinc, T_Sinc_DGLG, 336.2, hit, 1, 0
126, 1, T_Sinc, T_Sinc_URRR, 467.7, hit, 2, 0
127, 1, T_Sinc, T_Sinc_DGLG, 463.2, hit, 1, 0
128, 1, T_Sinc, T_Sinc_URRR, 338.5, hit, 2, 0
129, 1, T_Sinc, T_Sinc_DGLG, 486.0, hit, 1, 0
130, 1, T_Sinc, T_Sinc_DGLG, 389.5, hit, 1, 0
131, 1, T_Sinc, T_Sinc_DGLG, 304.9, hit, 1, 0
132, 1, T_Scon, T_Scon_UGLG, 388.3, hit, 1, 0
133, 1, T_Sinc, T_Sinc_DGLG, 311.8, hit, 1, 0
134, 1, T_Sinc, T_Sinc_URRR, 311.2, hit, 2, 0
135, 1, T_Scon, T_Scon_UGLG, 546.6, hit, 1, 0
136, 1, T_Sinc, T_Sinc_DGLG, 426.0, hit, 1, 0
137, 1, T_Scon, T_Scon_UGLG, 293.5, hit, 1, 0
138, 1, T_Sinc, T_Sinc_DGLG, 273.0, hit, 1, 0
139, 1, T_Scon, T_Scon_UGLG, 332.3, hit, 1, 0
140, 1, T_Scon, T_Scon_DRRR, 607.8, hit, 2, 0
141, 1, T_Scon, T_Scon_DRRR, 351.3, hit, 2, 0
142, 1, T_Scon, T_Scon_UGLG, 394.7, hit, 1, 0
143, 1, T_Scon, T_Scon_DRRR, 378.1, hit, 2, 0
144, 1, T_Scon, T_Scon_DRRR, 345.6, hit, 2, 0
145, 2, T_Scon, T_Scon_DRRR, 496.9, hit, 2, 0
146, 2, T_Sinc, T_Sinc_URRR, 436.4, hit, 2, 0
147, 2, T_Scon, T_Scon_UGLG, 487.8, hit, 1, 0
148, 2, T_Scon, T_Scon_UGLG, 427.2, hit, 1, 0
149, 2, T_Scon, T_Scon_DRRR, 298.6, hit, 2, 0
150, 2, T_Sinc, T_Sinc_DGLG, 598.1, hit, 1, 0
151, 2, T_Sinc, T_Sinc_DGLG, 433.5, hit, 1, 0
152, 2, T_Sinc, T_Sinc_URRR, 428.9, hit, 2, 0
153, 2, T_Scon, T_Scon_UGLG, 340.4, hit, 1, 0
154, 2, T_Scon, T_Scon_DRRR, 263.9, hit, 2, 0
155, 2, T_Sinc, T_Sinc_DGLG, 403.2, hit, 1, 0
156, 2, T_Scon, T_Scon_UGLG, 454.7, hit, 1, 0
157, 2, T_Sinc, T_Sinc_URRR, 682.2, hit, 2, 0
158, 2, T_Sinc, T_Sinc_DGLG, 549.6, hit, 1, 0
159, 2, T_Scon, T_Scon_DRRR, 349.0, hit, 2, 0
160, 2, T_Sinc, T_Sinc_DGLG, 408.4, hit, 1, 0
161, 2, T_Sinc, T_Sinc_DGLG, 659.9, hit, 1, 0
162, 2, T_Sinc, T_Sinc_URRR, 303.4, hit, 2, 0
163, 2, T_Sinc, T_Sinc_DGLG, 382.7, hit, 1, 0
164, 2, T_Sinc, T_Sinc_DGLG, 386.2, hit, 1, 0
165, 2, T_Scon, T_Scon_DRRR, 349.7, hit, 2, 0
166, 2, T_Scon, T_Scon_UGLG, 553.1, hit, 1, 0
167, 2, T_Sinc, T_Sinc_DGLG, 460.5, hit, 1, 0
168, 2, T_Sinc, T_Sinc_URRR, 488.0, hit, 2, 0
169, 2, T_Sinc, T_Sinc_DGLG, 427.4, hit, 1, 0
170, 2, T_Scon, T_Scon_UGLG, 282.8, hit, 1, 0
171, 2, T_Scon, T_Scon_UGLG, 314.3, hit, 1, 0
172, 2, T_Scon, T_Scon_DRRR, 349.7, hit, 2, 0
173, 2, T_Scon, T_Scon_DRRR, 465.1, hit, 2, 0
174, 2, T_Scon, T_Scon_DRRR, 352.6, hit, 2, 0
175, 2, T_Sinc, T_Sinc_URRR, 328.0, hit, 2, 0
176, 2, T_Sinc, T_Sinc_URRR, 367.5, hit, 2, 0
177, 2, T_Scon, T_Scon_UGLG, 578.9, hit, 1, 0
178, 2, T_Scon, T_Scon_DRRR, 466.3, hit, 2, 0
179, 2, T_Scon, T_Scon_UGLG, 393.8, hit, 1, 0
180, 2, T_Sinc, T_Sinc_URRR, 461.2, hit, 2, 0
181, 2, T_Scon, T_Scon_UGLG, 448.4, hit, 1, 0
182, 2, T_Scon, T_Scon_UGLG, 379.8, hit, 1, 0
183, 2, T_Scon, T_Scon_UGLG, 415.2, hit, 1, 0
184, 2, T_Sinc, T_Sinc_DGLG, 354.6, hit, 1, 0
185, 2, T_Scon, T_Scon_UGLG, 454.1, hit, 1, 0
186, 2, T_Sinc, T_Sinc_URRR, 473.6, hit, 2, 0
187, 2, T_Sinc, T_Sinc_URRR, 337.0, hit, 2, 0
188, 2, T_Scon, T_Scon_DRRR, 316.4, hit, 2, 0
189, 2, T_Scon, T_Scon_DRRR, 279.9, hit, 2, 0
190, 2, T_Sinc, T_Sinc_DGLG, 419.3, hit, 1, 0
191, 2, T_Scon, T_Scon_UGLG, 294.8, hit, 1, 0
192, 2, T_Sinc, T_Sinc_URRR, 478.1, hit, 2, 0
193, 2, T_Sinc, T_Sinc_DGLG, 561.6, hit, 1, 0
194, 2, T_Sinc, T_Sinc_URRR, 237.1, hit, 2, 0
195, 2, T_Scon, T_Scon_DRRR, 264.4, hit, 2, 0
196, 2, T_Sinc, T_Sinc_DGLG, 263.9, hit, 1, 0
197, 2, T_Scon, T_Scon_DRRR, 399.4, hit, 2, 0
198, 2, T_Scon, T_Scon_DRRR, 326.7, hit, 2, 0
199, 2, T_Sinc, T_Sinc_DGLG, 378.2, hit, 1, 0
200, 2, T_Sinc, T_Sinc_URRR, 289.7, hit, 2, 0
201, 2, T_Scon, T_Scon_UGLG, 525.1, hit, 1, 0
202, 2, T_Sinc, T_Sinc_DGLG, 288.5, hit, 1, 0
203, 2, T_Scon, T_Scon_DRRR, 416.0, hit, 2, 0
204, 2, T_Scon, T_Scon_DRRR, 347.4, hit, 2, 0
205, 2, T_Scon, T_Scon_DRRR, 286.8, hit, 2, 0
206, 2, T_Sinc, T_Sinc_URRR, 498.3, hit, 2, 0
207, 2, T_Scon, T_Scon_DRRR, 301.7, hit, 2, 0
208, 2, T_Scon, T_Scon_DRRR, 329.2, hit, 2, 0
209, 2, T_Sinc, T_Sinc_URRR, 348.5, hit, 2, 0
210, 2, T_Scon, T_Scon_UGLG, 392.0, hit, 1, 0
211, 2, T_Sinc, T_Sinc_URRR, 415.5, hit, 2, 0
212, 2, T_Sinc, T_Sinc_URRR, 386.8, hit, 2, 0
213, 2, T_Sinc, T_Sinc_URRR, 326.3, hit, 2, 0
214, 2, T_Sinc, T_Sinc_URRR, 309.8, hit, 2, 0
215, 2, T_Scon, T_Scon_UGLG, 453.2, hit, 1, 0
216, 2, T_Sinc, T_Sinc_DGLG, 328.7, incorrect, 2, 1
217, 2, T_Sinc, T_Sinc_DGLG, 479.8, hit, 1, 0
218, 2, T_Sinc, T_Sinc_DGLG, 395.3, hit, 1, 0
219, 2, T_Scon, T_Scon_UGLG, 478.7, hit, 1, 0
220, 2, T_Sinc, T_Sinc_DGLG, 362.1, hit, 1, 0
221, 2, T_Sinc, T_Sinc_URRR, 853.6, hit, 2, 2
222, 2, T_Scon, T_Scon_UGLG, 429.0, hit, 1, 0
223, 2, T_Sinc, T_Sinc_DGLG, 440.4, hit, 1, 0
224, 2, T_Scon, T_Scon_UGLG, 507.8, hit, 1, 0
225, 2, T_Sinc, T_Sinc_URRR, 423.3, hit, 2, 0
226, 2, T_Sinc, T_Sinc_URRR, 342.8, hit, 2, 0
227, 2, T_Scon, T_Scon_UGLG, 378.1, hit, 1, 0
228, 2, T_Sinc, T_Sinc_URRR, 405.6, hit, 2, 0
229, 2, T_Sinc, T_Sinc_URRR, 401.1, hit, 2, 0
230, 2, T_Scon, T_Scon_UGLG, 460.5, hit, 1, 0
231, 2, T_Scon, T_Scon_UGLG, 371.9, hit, 1, 0
232, 2, T_Sinc, T_Sinc_DGLG, 439.4, hit, 1, 0
233, 2, T_Scon, T_Scon_DRRR, 330.8, incorrect, 1, 1
234, 2, T_Sinc, T_Sinc_URRR, 334.3, hit, 2, 0
235, 2, T_Scon, T_Scon_DRRR, 281.6, hit, 2, 0
236, 2, T_Sinc, T_Sinc_URRR, 429.1, hit, 2, 0
237, 2, T_Sinc, T_Sinc_DGLG, 384.6, hit, 1, 0
238, 2, T_Scon, T_Scon_DRRR, 456.0, hit, 2, 0
239, 2, T_Sinc, T_Sinc_DGLG, 247.4, hit, 1, 0
240, 2, T_Scon, T_Scon_UGLG, 522.9, hit, 1, 0
241, 2, T_Scon, T_Scon_UGLG, 462.3, hit, 1, 0
242, 2, T_Sinc, T_Sinc_URRR, 409.8, hit, 2, 0
243, 2, T_Sinc, T_Sinc_DGLG, 521.2, hit, 1, 0
244, 2, T_Scon, T_Scon_DRRR, 328.6, hit, 2, 0
245, 2, T_Sinc, T_Sinc_URRR, 404.1, hit, 2, 0
246, 2, T_Scon, T_Scon_UGLG, 283.5, hit, 1, 0
247, 2, T_Sinc, T_Sinc_URRR, 310.9, hit, 2, 0
248, 2, T_Scon, T_Scon_DRRR, 386.4, hit, 2, 0
249, 2, T_Scon, T_Scon_DRRR, 469.8, hit, 2, 0
250, 2, T_Sinc, T_Sinc_DGLG, 469.2, hit, 1, 0
251, 2, T_Scon, T_Scon_UGLG, 364.7, hit, 1, 0
252, 2, T_Sinc, T_Sinc_URRR, 420.1, hit, 2, 0
253, 2, T_Sinc, T_Sinc_URRR, 519.3, hit, 2, 0
254, 2, T_Sinc, T_Sinc_DGLG, 342.7, hit, 1, 0
255, 2, T_Sinc, T_Sinc_DGLG, 338.2, hit, 1, 0
256, 2, T_Scon, T_Scon_UGLG, 513.5, hit, 1, 0
257, 2, T_Sinc, T_Sinc_DGLG, 461.0, hit, 1, 0
258, 2, T_Sinc, T_Sinc_DGLG, 356.5, hit, 1, 0
259, 2, T_Sinc, T_Sinc_DGLG, 335.9, hit, 1, 0
260, 2, T_Scon, T_Scon_UGLG, 379.3, hit, 1, 0
261, 2, T_Sinc, T_Sinc_DGLG, 506.8, hit, 1, 0
262, 2, T_Scon, T_Scon_DRRR, 482.2, hit, 2, 0
263, 2, T_Sinc, T_Sinc_DGLG, 501.7, hit, 1, 0
264, 2, T_Scon, T_Scon_DRRR, 597.0, hit, 2, 0
265, 2, T_Sinc, T_Sinc_URRR, 340.5, hit, 2, 0
266, 2, T_Sinc, T_Sinc_DGLG, 404.0, hit, 1, 0
267, 2, T_Sinc, T_Sinc_URRR, 595.5, hit, 2, 0
268, 2, T_Sinc, T_Sinc_URRR, 326.8, hit, 2, 0
269, 2, T_Scon, T_Scon_UGLG, 474.3, incorrect, 2, 1
270, 2, T_Scon, T_Scon_UGLG, 501.7, hit, 1, 0
271, 2, T_Scon, T_Scon_DRRR, 641.2, hit, 2, 0
272, 2, T_Scon, T_Scon_UGLG, 332.6, hit, 1, 0
273, 2, T_Sinc, T_Sinc_DGLG, 432.0, hit, 1, 0
274, 2, T_Sinc, T_Sinc_URRR, 611.5, hit, 2, 0
275, 2, T_Scon, T_Scon_UGLG, 366.9, hit, 1, 0
276, 2, T_Scon, T_Scon_UGLG, 458.3, hit, 1, 0
277, 2, T_Scon, T_Scon_DRRR, 593.8, hit, 2, 0
278, 2, T_Sinc, T_Sinc_DGLG, 453.2, hit, 1, 0
279, 2, T_Scon, T_Scon_DRRR, 496.6, hit, 2, 0
280, 2, T_Scon, T_Scon_DRRR, 384.1, hit, 2, 0
281, 2, T_Scon, T_Scon_DRRR, 467.5, hit, 2, 0
282, 2, T_Scon, T_Scon_DRRR, 462.9, hit, 2, 0
283, 2, T_Scon, T_Scon_UGLG, 402.4, hit, 1, 0
284, 2, T_Scon, T_Scon_DRRR, 473.8, hit, 2, 0
285, 2, T_Scon, T_Scon_DRRR, 373.3, hit, 2, 0
286, 2, T_Scon, T_Scon_DRRR, 464.7, hit, 2, 0
287, 2, T_Sinc, T_Sinc_URRR, 552.1, hit, 2, 0
288, 2, T_Scon, T_Scon_UGLG, 547.6, hit, 1, 0
289, 3, T_Scon, T_Scon_DRRR, 548.5, hit, 2, 0
290, 3, T_Scon, T_Scon_UGLG, 448.0, hit, 1, 0
291, 3, T_Sinc, T_Sinc_URRR, 539.4, hit, 2, 0
292, 3, T_Sinc, T_Sinc_DGLG, 602.9, hit, 1, 0
293, 3, T_Sinc, T_Sinc_DGLG, 614.2, hit, 1, 0
294, 3, T_Scon, T_Scon_DRRR, 401.7, incorrect, 1, 1
295, 3, T_Scon, T_Scon_UGLG, 837.2, hit, 1, 2
296, 3, T_Sinc, T_Sinc_URRR, 432.6, hit, 2, 0
297, 3, T_Scon, T_Scon_DRRR, 332.0, hit, 2, 0
298, 3, T_Sinc, T_Sinc_URRR, 311.4, hit, 2, 0
299, 3, T_Scon, T_Scon_DRRR, 438.9, hit, 2, 0
300, 3, T_Scon, T_Scon_UGLG, 470.4, hit, 1, 0
301, 3, T_Sinc, T_Sinc_DGLG, 425.8, hit, 1, 0
302, 3, T_Sinc, T_Sinc_URRR, 545.2, hit, 2, 0
303, 3, T_Scon, T_Scon_DRRR, 544.7, hit, 2, 0
304, 3, T_Sinc, T_Sinc_DGLG, 484.0, hit, 1, 0
305, 3, T_Sinc, T_Sinc_DGLG, 319.5, hit, 1, 0
306, 3, T_Scon, T_Scon_DRRR, 643.0, hit, 2, 0
307, 3, T_Sinc, T_Sinc_DGLG, 654.4, hit, 1, 0
308, 3, T_Sinc, T_Sinc_DGLG, 405.8, hit, 1, 0
309, 3, T_Scon, T_Scon_DRRR, 537.2, hit, 2, 0
310, 3, T_Sinc, T_Sinc_URRR, 356.7, hit, 2, 0
311, 3, T_Sinc, T_Sinc_URRR, 360.2, hit, 2, 0
312, 3, T_Scon, T_Scon_UGLG, 547.5, hit, 1, 0
313, 3, T_Scon, T_Scon_DRRR, 479.0, hit, 2, 0
314, 3, T_Scon, T_Scon_DRRR, 482.5, hit, 2, 0
315, 3, T_Scon, T_Scon_DRRR, 333.9, hit, 2, 0
316, 3, T_Scon, T_Scon_UGLG, 365.4, hit, 1, 0
317, 3, T_Scon, T_Scon_DRRR, 408.8, hit, 2, 0
318, 3, T_Scon, T_Scon_DRRR, 396.2, hit, 2, 0
319, 3, T_Sinc, T_Sinc_URRR, 351.7, hit, 2, 0
320, 3, T_Scon, T_Scon_UGLG, 419.1, hit, 1, 0
321, 3, T_Sinc, T_Sinc_DGLG, 554.5, hit, 1, 0
322, 3, T_Sinc, T_Sinc_URRR, 442.0, hit, 2, 0
323, 3, T_Sinc, T_Sinc_DGLG, 561.4, hit, 1, 0
324, 3, T_Scon, T_Scon_UGLG, 492.8, hit, 1, 0
325, 3, T_Sinc, T_Sinc_URRR, 636.1, hit, 2, 0
326, 3, T_Sinc, T_Sinc_URRR, 403.4, hit, 2, 0
327, 3, T_Scon, T_Scon_DRRR, 646.8, hit, 2, 0
328, 3, T_Sinc, T_Sinc_DGLG, 458.3, hit, 1, 0
329, 3, T_Sinc, T_Sinc_URRR, 385.8, hit, 2, 0
330, 3, T_Scon, T_Scon_UGLG, 425.1, hit, 1, 0
331, 3, T_Sinc, T_Sinc_URRR, 500.6, hit, 2, 0
332, 3, T_Scon, T_Scon_DRRR, 320.1, hit, 2, 0
333, 3, T_Scon, T_Scon_UGLG, 347.5, hit, 1, 0
334, 3, T_Sinc, T_Sinc_URRR, 586.9, hit, 2, 0
335, 3, T_Sinc, T_Sinc_DGLG, 402.4, hit, 1, 0
336, 3, T_Scon, T_Scon_DRRR, 469.9, hit, 2, 0
337, 3, T_Scon, T_Scon_UGLG, 561.2, hit, 1, 0
338, 3, T_Scon, T_Scon_UGLG, 412.7, hit, 1, 0
339, 3, T_Sinc, T_Sinc_URRR, 472.1, hit, 2, 0
340, 3, T_Scon, T_Scon_DRRR, 359.6, hit, 2, 0
341, 3, T_Scon, T_Scon_UGLG, 274.9, hit, 1, 0
342, 3, T_Sinc, T_Sinc_URRR, 498.4, hit, 2, 0
343, 3, T_Sinc, T_Sinc_DGLG, 565.9, hit, 1, 0
344, 3, T_Sinc, T_Sinc_DGLG, 385.2, hit, 1, 0
345, 3, T_Scon, T_Scon_UGLG, 460.7, hit, 1, 0
346, 3, T_Sinc, T_Sinc_DGLG, 352.2, hit, 1, 0
347, 3, T_Scon, T_Scon_UGLG, 331.5, hit, 1, 0
348, 3, T_Scon, T_Scon_DRRR, 495.0, hit, 2, 0
349, 3, T_Scon, T_Scon_UGLG, 490.5, hit, 1, 0
350, 3, T_Sinc, T_Sinc_DGLG, 545.9, hit, 1, 0
351, 3, T_Scon, T_Scon_UGLG, 465.3, hit, 1, 0
352, 3, T_Sinc, T_Sinc_URRR, 540.8, hit, 2, 0
353, 3, T_Sinc, T_Sinc_DGLG, 324.2, incorrect, 2, 1
354, 3, T_Sinc, T_Sinc_URRR, 615.6, hit, 2, 0
355, 3, T_Sinc, T_Sinc_DGLG, 427.0, hit, 1, 0
356, 3, T_Sinc, T_Sinc_DGLG, 354.5, hit, 1, 0
357, 3, T_Sinc, T_Sinc_DGLG, 294.0, hit, 1, 0
358, 3, T_Scon, T_Scon_DRRR, 529.3, hit, 2, 0
359, 3, T_Sinc, T_Sinc_URRR, 580.8, hit, 2, 0
360, 3, T_Scon, T_Scon_UGLG, 456.3, hit, 1, 0
361, 3, T_Scon, T_Scon_UGLG, 495.4, hit, 1, 0
362, 3, T_Scon, T_Scon_DRRR, 390.9, hit, 2, 0
363, 3, T_Scon, T_Scon_UGLG, 382.3, hit, 1, 0
364, 3, T_Sinc, T_Sinc_DGLG, 357.8, hit, 1, 0
365, 3, T_Sinc, T_Sinc_URRR, 489.1, hit, 2, 0
366, 3, T_Sinc, T_Sinc_URRR, 328.6, hit, 2, 0
367, 3, T_Scon, T_Scon_DRRR, 448.0, hit, 2, 0
368, 3, T_Sinc, T_Sinc_URRR, 395.5, hit, 2, 0
369, 3, T_Sinc, T_Sinc_URRR, 350.9, hit, 2, 0
370, 3, T_Sinc, T_Sinc_DGLG, 422.3, hit, 1, 0
371, 3, T_Scon, T_Scon_UGLG, 317.8, hit, 1, 0
372, 3, T_Scon, T_Scon_DRRR, 377.3, hit, 2, 0
373, 3, T_Sinc, T_Sinc_URRR, 408.6, incorrect, 1, 1
374, 3, T_Scon, T_Scon_UGLG, 708.1, hit, 1, 0
375, 3, T_Sinc, T_Sinc_URRR, 639.6, hit, 2, 0
376, 3, T_Scon, T_Scon_DRRR, 451.0, hit, 2, 0
377, 3, T_Scon, T_Scon_UGLG, 486.4, hit, 1, 0
378, 3, T_Scon, T_Scon_DRRR, 385.9, hit, 2, 0
379, 3, T_Scon, T_Scon_DRRR, 517.3, hit, 2, 0
380, 3, T_Scon, T_Scon_DRRR, 416.7, hit, 2, 0
381, 3, T_Sinc, T_Sinc_DGLG, 492.2, hit, 1, 0
382, 3, T_Scon, T_Scon_UGLG, 423.6, hit, 1, 0
383, 3, T_Sinc, T_Sinc_DGLG, 411.1, hit, 1, 0
384, 3, T_Sinc, T_Sinc_URRR, 486.5, hit, 2, 0
385, 3, T_Sinc, T_Sinc_DGLG, 605.9, hit, 1, 0
386, 3, T_Sinc, T_Sinc_DGLG, 545.4, hit, 1, 0
387, 3, T_Scon, T_Scon_UGLG, 380.8, hit, 1, 0
388, 3, T_Sinc, T_Sinc_URRR, 604.2, hit, 2, 0
389, 3, T_Scon, T_Scon_DRRR, 419.7, hit, 2, 0
390, 3, T_Sinc, T_Sinc_DGLG, 567.1, hit, 1, 0
391, 3, T_Sinc, T_Sinc_DGLG, 446.6, hit, 1, 0
392, 3, T_Sinc, T_Sinc_URRR, 562.0, hit, 2, 0
393, 3, T_Sinc, T_Sinc_DGLG, 817.4, hit, 1, 0
394, 3, T_Scon, T_Scon_UGLG, 412.9, hit, 1, 0
395, 3, T_Scon, T_Scon_DRRR, 492.3, hit, 2, 0
396, 3, T_Scon, T_Scon_DRRR, 447.7, hit, 2, 0
397, 3, T_Sinc, T_Sinc_DGLG, 511.0, hit, 1, 0
398, 3, T_Scon, T_Scon_UGLG, 394.4, hit, 1, 0
399, 3, T_Sinc, T_Sinc_DGLG, 341.7, hit, 1, 0
400, 3, T_Sinc, T_Sinc_URRR, 801.2, hit, 2, 0
401, 3, T_Sinc, T_Sinc_DGLG, 412.7, hit, 1, 0
402, 3, T_Scon, T_Scon_UGLG, 432.1, hit, 1, 0
403, 3, T_Sinc, T_Sinc_DGLG, 295.5, hit, 1, 0
404, 3, T_Sinc, T_Sinc_DGLG, 411.0, hit, 1, 0
405, 3, T_Scon, T_Scon_UGLG, 438.3, hit, 1, 0
406, 3, T_Scon, T_Scon_UGLG, 413.8, hit, 1, 0
407, 3, T_Scon, T_Scon_DRRR, 577.3, hit, 2, 0
408, 3, T_Scon, T_Scon_DRRR, 516.7, hit, 2, 0
409, 3, T_Scon, T_Scon_UGLG, 440.1, hit, 1, 0
410, 3, T_Sinc, T_Sinc_URRR, 679.6, hit, 2, 0
411, 3, T_Sinc, T_Sinc_URRR, 427.0, hit, 2, 0
412, 3, T_Scon, T_Scon_UGLG, 470.5, hit, 1, 0
413, 3, T_Scon, T_Scon_DRRR, 433.8, hit, 2, 0
414, 3, T_Scon, T_Scon_UGLG, 437.3, hit, 1, 0
415, 3, T_Scon, T_Scon_UGLG, 332.8, hit, 1, 0
416, 3, T_Scon, T_Scon_DRRR, 308.1, hit, 2, 0
417, 3, T_Sinc, T_Sinc_DGLG, 403.6, hit, 1, 0
418, 3, T_Sinc, T_Sinc_DGLG, 631.0, hit, 1, 0
419, 3, T_Scon, T_Scon_UGLG, 354.5, hit, 1, 0
420, 3, T_Scon, T_Scon_UGLG, 373.9, hit, 1, 0
421, 3, T_Sinc, T_Sinc_DGLG, 489.4, hit, 1, 0
422, 3, T_Sinc, T_Sinc_URRR, 808.8, hit, 2, 0
423, 3, T_Scon, T_Scon_DRRR, 368.3, hit, 2, 0
424, 3, T_Scon, T_Scon_DRRR, 551.6, hit, 2, 0
425, 3, T_Sinc, T_Sinc_URRR, 399.1, hit, 2, 0
426, 3, T_Scon, T_Scon_DRRR, 442.6, hit, 2, 0
427, 3, T_Sinc, T_Sinc_URRR, 470.0, hit, 2, 0
428, 3, T_Sinc, T_Sinc_URRR, 353.4, hit, 2, 0
429, 3, T_Scon, T_Scon_UGLG, 416.9, hit, 1, 0
430, 3, T_Sinc, T_Sinc_URRR, 500.3, hit, 2, 0
431, 3, T_Scon, T_Scon_DRRR, 539.7, hit, 2, 0
432, 3, T_Sinc, T_Sinc_URRR, 511.2, hit, 2, 0
433, 4, T_Sinc, T_Sinc_DGLG, 468.6, hit, 1, 0
434, 4, T_Sinc, T_Sinc_URRR, 427.9, hit, 2, 0
435, 4, T_Scon, T_Scon_DRRR, 495.4, hit, 2, 0
436, 4, T_Scon, T_Scon_UGLG, 594.8, hit, 1, 0
437, 4, T_Sinc, T_Sinc_DGLG, 282.3, hit, 1, 0
438, 4, T_Scon, T_Scon_DRRR, 485.6, hit, 2, 0
439, 4, T_Sinc, T_Sinc_URRR, 521.1, hit, 2, 0
440, 4, T_Scon, T_Scon_UGLG, 448.6, hit, 1, 0
441, 4, T_Scon, T_Scon_UGLG, 352.0, hit, 1, 0
442, 4, T_Sinc, T_Sinc_URRR, 659.4, hit, 2, 0
443, 4, T_Scon, T_Scon_DRRR, 326.9, hit, 2, 0
444, 4, T_Scon, T_Scon_UGLG, 918.3, hit, 1, 2
445, 4, T_Scon, T_Scon_UGLG, 385.7, hit, 1, 0
446, 4, T_Sinc, T_Sinc_DGLG, 493.2, hit, 1, 0
447, 4, T_Sinc, T_Sinc_URRR, 408.6, hit, 2, 0
448, 4, T_Scon, T_Scon_DRRR, 380.1, hit, 2, 0
449, 4, T_Sinc, T_Sinc_URRR, 463.5, hit, 2, 0
450, 4, T_Scon, T_Scon_UGLG, 454.9, hit, 1, 0
451, 4, T_Scon, T_Scon_DRRR, 474.4, hit, 2, 0
452, 4, T_Sinc, T_Sinc_URRR, 301.8, hit, 2, 0
453, 4, T_Sinc, T_Sinc_DGLG, 625.2, hit, 1, 0
454, 4, T_Scon, T_Scon_UGLG, 416.7, hit, 1, 0
455, 4, T_Scon, T_Scon_DRRR, 396.1, hit, 2, 0
456, 4, T_Sinc, T_Sinc_URRR, 287.5, hit, 2, 0
457, 4, T_Sinc, T_Sinc_URRR, 307.0, hit, 2, 0
458, 4, T_Scon, T_Scon_UGLG, 726.4, hit, 1, 0
459, 4, T_Scon, T_Scon_DRRR, 545.8, hit, 2, 0
460, 4, T_Scon, T_Scon_DRRR, 409.3, hit, 2, 0
461, 4, T_Sinc, T_Sinc_URRR, 292.7, hit, 2, 0
462, 4, T_Scon, T_Scon_DRRR, 380.2, hit, 2, 0
463, 4, T_Sinc, T_Sinc_DGLG, 447.6, hit, 1, 0
464, 4, T_Scon, T_Scon_UGLG, 355.0, hit, 1, 0
465, 4, T_Scon, T_Scon_UGLG, 286.5, hit, 1, 0
466, 4, T_Sinc, T_Sinc_DGLG, 361.9, hit, 1, 0
467, 4, T_Sinc, T_Sinc_URRR, 469.4, hit, 2, 0
468, 4, T_Scon, T_Scon_DRRR, 328.8, hit, 2, 0
469, 4, T_Sinc, T_Sinc_DGLG, 488.0, hit, 1, 0
470, 4, T_Scon, T_Scon_DRRR, 351.3, hit, 2, 0
471, 4, T_Sinc, T_Sinc_URRR, 362.8, hit, 2, 0
472, 4, T_Scon, T_Scon_UGLG, 446.3, hit, 1, 0
473, 4, T_Sinc, T_Sinc_DGLG, 273.6, hit, 1, 0
474, 4, T_Scon, T_Scon_UGLG, 317.1, hit, 1, 0
475, 4, T_Scon, T_Scon_UGLG, 388.6, hit, 1, 0
476, 4, T_Sinc, T_Sinc_DGLG, 308.0, hit, 1, 0
477, 4, T_Scon, T_Scon_UGLG, 327.4, hit, 1, 0
478, 4, T_Sinc, T_Sinc_DGLG, 366.8, hit, 1, 0
479, 4, T_Sinc, T_Sinc_DGLG, 390.3, hit, 1, 0
480, 4, T_Sinc, T_Sinc_DGLG, 561.8, hit, 1, 0
481, 4, T_Sinc, T_Sinc_DGLG, 301.2, hit, 1, 0
482, 4, T_Sinc, T_Sinc_DGLG, 320.6, hit, 1, 0
483, 4, T_Scon, T_Scon_DRRR, 716.1, hit, 2, 0
484, 4, T_Sinc, T_Sinc_DGLG, 519.4, hit, 1, 0
485, 4, T_Sinc, T_Sinc_URRR, 310.9, hit, 2, 0
486, 4, T_Scon, T_Scon_DRRR, 482.4, hit, 2, 0
487, 4, T_Sinc, T_Sinc_URRR, 341.8, hit, 2, 0
488, 4, T_Sinc, T_Sinc_URRR, 433.2, hit, 2, 0
489, 4, T_Scon, T_Scon_DRRR, 384.7, hit, 2, 0
490, 4, T_Scon, T_Scon_DRRR, 372.1, hit, 2, 0
491, 4, T_Scon, T_Scon_DRRR, 303.6, hit, 2, 0
492, 4, T_Sinc, T_Sinc_DGLG, 475.0, hit, 1, 0
493, 4, T_Sinc, T_Sinc_URRR, 458.4, hit, 2, 0
494, 4, T_Scon, T_Scon_UGLG, 545.9, hit, 1, 0
495, 4, T_Scon, T_Scon_DRRR, 561.3, hit, 2, 0
496, 4, T_Scon, T_Scon_DRRR, 452.7, hit, 2, 0
497, 4, T_Scon, T_Scon_UGLG, 452.2, hit, 1, 0
498, 4, T_Scon, T_Scon_UGLG, 343.6, hit, 1, 0
499, 4, T_Scon, T_Scon_DRRR, 363.0, hit, 2, 0
500, 4, T_Scon, T_Scon_UGLG, 286.5, hit, 1, 0
501, 4, T_Scon, T_Scon_DRRR, 357.9, hit, 2, 0
502, 4, T_Scon, T_Scon_DRRR, 537.4, hit, 2, 0
503, 4, T_Sinc, T_Sinc_DGLG, 500.8, hit, 1, 0
504, 4, T_Sinc, T_Sinc_DGLG, 376.2, hit, 1, 0
505, 4, T_Sinc, T_Sinc_DGLG, 371.4, hit, 1, 0
506, 4, T_Sinc, T_Sinc_URRR, 414.8, hit, 2, 0
507, 4, T_Scon, T_Scon_DRRR, 234.3, hit, 2, 0
508, 4, T_Sinc, T_Sinc_DGLG, 369.7, hit, 1, 0
509, 4, T_Sinc, T_Sinc_URRR, 757.1, hit, 2, 0
510, 4, T_Sinc, T_Sinc_URRR, 456.6, hit, 2, 0
511, 4, T_Scon, T_Scon_UGLG, 244.0, incorrect, 2, 1
512, 4, T_Sinc, T_Sinc_DGLG, 327.5, hit, 1, 0
513, 4, T_Scon, T_Scon_DRRR, 462.8, hit, 2, 0
514, 4, T_Sinc, T_Sinc_URRR, 602.3, hit, 2, 0
515, 4, T_Scon, T_Scon_UGLG, 633.8, hit, 1, 0
516, 4, T_Scon, T_Scon_DRRR, 333.2, hit, 2, 0
517, 4, T_Scon, T_Scon_UGLG, 496.6, hit, 1, 0
518, 4, T_Sinc, T_Sinc_URRR, 572.1, hit, 2, 0
519, 4, T_Scon, T_Scon_DRRR, 587.5, hit, 2, 0
520, 4, T_Sinc, T_Sinc_DGLG, 571.0, hit, 1, 0
521, 4, T_Sinc, T_Sinc_DGLG, 462.4, hit, 1, 0
522, 4, T_Sinc, T_Sinc_URRR, 457.8, hit, 2, 0
523, 4, T_Sinc, T_Sinc_DGLG, 701.3, hit, 1, 0
524, 4, T_Sinc, T_Sinc_URRR, 568.6, hit, 2, 0
525, 4, T_Scon, T_Scon_UGLG, 500.1, hit, 1, 0
526, 4, T_Sinc, T_Sinc_URRR, 531.6, hit, 2, 0
527, 4, T_Scon, T_Scon_DRRR, 375.0, hit, 2, 0
528, 4, T_Sinc, T_Sinc_URRR, 366.4, hit, 2, 0
529, 4, T_Scon, T_Scon_UGLG, 465.9, hit, 1, 0
530, 4, T_Scon, T_Scon_DRRR, 509.3, hit, 2, 0
531, 4, T_Scon, T_Scon_UGLG, 476.8, hit, 1, 0
532, 4, T_Sinc, T_Sinc_URRR, 432.2, hit, 2, 0
533, 4, T_Scon, T_Scon_DRRR, 475.6, hit, 2, 0
534, 4, T_Scon, T_Scon_UGLG, 683.1, hit, 1, 0
535, 4, T_Sinc, T_Sinc_URRR, 790.6, hit, 2, 0
536, 4, T_Sinc, T_Sinc_URRR, 401.9, hit, 2, 0
537, 4, T_Scon, T_Scon_UGLG, 537.4, hit, 1, 0
538, 4, T_Scon, T_Scon_DRRR, 512.9, hit, 2, 0
539, 4, T_Scon, T_Scon_UGLG, 344.2, hit, 1, 0
540, 4, T_Sinc, T_Sinc_URRR, 339.7, hit, 2, 0
541, 4, T_Scon, T_Scon_UGLG, 466.9, hit, 1, 0
542, 4, T_Scon, T_Scon_UGLG, 346.3, hit, 1, 0
543, 4, T_Sinc, T_Sinc_DGLG, 429.7, hit, 1, 0
544, 4, T_Sinc, T_Sinc_DGLG, 357.2, hit, 1, 0
545, 4, T_Sinc, T_Sinc_URRR, 512.6, hit, 2, 0
546, 4, T_Scon, T_Scon_DRRR, 304.0, hit, 2, 0
547, 4, T_Sinc, T_Sinc_DGLG, 507.5, hit, 1, 0
548, 4, T_Sinc, T_Sinc_URRR, 398.9, hit, 2, 0
549, 4, T_Sinc, T_Sinc_URRR, 330.4, hit, 2, 0
550, 4, T_Sinc, T_Sinc_URRR, 433.8, hit, 2, 0
551, 4, T_Scon, T_Scon_DRRR, 453.2, hit, 2, 0
552, 4, T_Sinc, T_Sinc_DGLG, 536.7, hit, 1, 0
553, 4, T_Sinc, T_Sinc_DGLG, 332.2, hit, 1, 0
554, 4, T_Sinc, T_Sinc_DGLG, 443.5, hit, 1, 0
555, 4, T_Scon, T_Scon_UGLG, 395.0, hit, 1, 0
556, 4, T_Sinc, T_Sinc_URRR, 586.4, hit, 2, 0
557, 4, T_Scon, T_Scon_UGLG, 533.8, hit, 1, 0
558, 4, T_Scon, T_Scon_DRRR, 357.3, hit, 2, 0
559, 4, T_Scon, T_Scon_UGLG, 544.7, hit, 1, 0
560, 4, T_Sinc, T_Sinc_DGLG, 428.1, hit, 1, 0
561, 4, T_Scon, T_Scon_DRRR, 531.6, hit, 2, 0
562, 4, T_Sinc, T_Sinc_DGLG, 399.0, hit, 1, 0
563, 4, T_Scon, T_Scon_UGLG, 614.5, hit, 1, 0
564, 4, T_Sinc, T_Sinc_DGLG, 298.0, hit, 1, 0
565, 4, T_Sinc, T_Sinc_DGLG, 353.3, hit, 1, 0
566, 4, T_Scon, T_Scon_UGLG, 396.8, hit, 1, 0
567, 4, T_Sinc, T_Sinc_URRR, 424.2, hit, 2, 0
568, 4, T_Scon, T_Scon_DRRR, 291.6, hit, 2, 0
569, 4, T_Scon, T_Scon_UGLG, 335.1, hit, 1, 0
570, 4, T_Sinc, T_Sinc_DGLG, 518.5, hit, 1, 0
571, 4, T_Sinc, T_Sinc_URRR, 650.0, hit, 2, 0
572, 4, T_Sinc, T_Sinc_URRR, 309.4, hit, 2, 0
573, 4, T_Sinc, T_Sinc_DGLG, 396.8, hit, 1, 0
574, 4, T_Scon, T_Scon_DRRR, 660.3, hit, 2, 0
575, 4, T_Scon, T_Scon_UGLG, 455.8, hit, 1, 0
576, 4, T_Scon, T_Scon_DRRR, 507.1, hit, 2, 0
577, 5, T_Sinc, T_Sinc_URRR, 470.4, hit, 2, 0
578, 5, T_Sinc, T_Sinc_URRR, 313.8, hit, 2, 0
579, 5, T_Sinc, T_Sinc_DGLG, 369.2, hit, 1, 0
580, 5, T_Sinc, T_Sinc_URRR, 400.6, hit, 2, 0
581, 5, T_Scon, T_Scon_DRRR, 316.1, hit, 2, 0
582, 5, T_Scon, T_Scon_DRRR, 419.6, hit, 2, 0
583, 5, T_Scon, T_Scon_UGLG, 750.9, hit, 1, 0
584, 5, T_Sinc, T_Sinc_DGLG, 302.4, hit, 1, 0
585, 5, T_Sinc, T_Sinc_URRR, 1445.8, hit, 2, 2
586, 5, T_Scon, T_Scon_UGLG, 809.3, hit, 1, 2
587, 5, T_Scon, T_Scon_UGLG, 484.7, hit, 1, 0
588, 5, T_Scon, T_Scon_DRRR, 808.1, hit, 2, 2
589, 5, T_Sinc, T_Sinc_DGLG, 435.6, hit, 1, 0
590, 5, T_Sinc, T_Sinc_URRR, 479.1, hit, 2, 0
591, 5, T_Sinc, T_Sinc_URRR, 546.4, hit, 2, 0
592, 5, T_Sinc, T_Sinc_DGLG, 761.9, hit, 1, 0
593, 5, T_Scon, T_Scon_DRRR, 509.3, hit, 2, 0
594, 5, T_Scon, T_Scon_DRRR, 368.8, hit, 2, 0
595, 5, T_Sinc, T_Sinc_DGLG, 484.2, hit, 1, 0
596, 5, T_Sinc, T_Sinc_DGLG, 283.6, hit, 1, 0
597, 5, T_Scon, T_Scon_UGLG, 463.1, hit, 1, 0
598, 5, T_Sinc, T_Sinc_URRR, 494.4, hit, 2, 0
599, 5, T_Scon, T_Scon_DRRR, 497.9, hit, 2, 0
600, 5, T_Sinc, T_Sinc_URRR, 365.4, hit, 2, 0
601, 5, T_Sinc, T_Sinc_DGLG, 488.9, hit, 1, 0
602, 5, T_Scon, T_Scon_DRRR, 468.3, hit, 2, 0
603, 5, T_Sinc, T_Sinc_URRR, 363.7, hit, 2, 0
604, 5, T_Sinc, T_Sinc_DGLG, 579.1, hit, 1, 0
605, 5, T_Sinc, T_Sinc_DGLG, 466.6, hit, 1, 0
606, 5, T_Scon, T_Scon_UGLG, 326.1, hit, 1, 0
607, 5, T_Scon, T_Scon_UGLG, 545.4, hit, 1, 0
608, 5, T_Sinc, T_Sinc_URRR, 512.9, hit, 2, 0
609, 5, T_Scon, T_Scon_UGLG, 444.4, hit, 1, 0
610, 5, T_Scon, T_Scon_DRRR, 415.8, hit, 2, 0
611, 5, T_Scon, T_Scon_UGLG, 811.2, hit, 1, 2
612, 5, T_Scon, T_Scon_UGLG, 406.6, hit, 1, 0
613, 5, T_Sinc, T_Sinc_URRR, 577.8, hit, 2, 0
614, 5, T_Sinc, T_Sinc_DGLG, 405.2, hit, 1, 0
615, 5, T_Scon, T_Scon_UGLG, 464.7, hit, 1, 0
616, 5, T_Scon, T_Scon_UGLG, 260.2, hit, 1, 0
617, 5, T_Scon, T_Scon_DRRR, 499.5, hit, 2, 0
618, 5, T_Scon, T_Scon_DRRR, 387.0, hit, 2, 0
619, 5, T_Scon, T_Scon_DRRR, 306.4, hit, 2, 0
620, 5, T_Sinc, T_Sinc_URRR, 461.9, incorrect, 1, 1
621, 5, T_Scon, T_Scon_DRRR, 365.3, hit, 2, 0
622, 5, T_Sinc, T_Sinc_URRR, 332.7, hit, 2, 0
623, 5, T_Sinc, T_Sinc_DGLG, 536.2, hit, 1, 0
624, 5, T_Scon, T_Scon_DRRR, 387.6, hit, 2, 0
625, 5, T_Scon, T_Scon_UGLG, 567.1, hit, 1, 0
626, 5, T_Scon, T_Scon_UGLG, 354.5, hit, 1, 0
627, 5, T_Sinc, T_Sinc_DGLG, 322.0, hit, 1, 0
628, 5, T_Scon, T_Scon_UGLG, 565.3, hit, 1, 0
629, 5, T_Sinc, T_Sinc_URRR, 536.8, hit, 2, 0
630, 5, T_Scon, T_Scon_UGLG, 456.3, hit, 1, 0
631, 5, T_Scon, T_Scon_DRRR, 531.6, hit, 2, 0
632, 5, T_Scon, T_Scon_UGLG, 607.1, hit, 1, 0
633, 5, T_Scon, T_Scon_UGLG, 378.6, hit, 1, 0
634, 5, T_Sinc, T_Sinc_DGLG, 406.0, hit, 1, 0
635, 5, T_Scon, T_Scon_DRRR, 525.4, hit, 2, 0
636, 5, T_Sinc, T_Sinc_URRR, 376.9, hit, 2, 0
637, 5, T_Scon, T_Scon_DRRR, 412.3, hit, 2, 0
638, 5, T_Scon, T_Scon_DRRR, 319.7, hit, 2, 0
639, 5, T_Scon, T_Scon_DRRR, 535.1, hit, 2, 0
640, 5, T_Sinc, T_Sinc_DGLG, 510.6, hit, 1, 0
641, 5, T_Sinc, T_Sinc_URRR, 462.1, hit, 2, 0
642, 5, T_Sinc, T_Sinc_DGLG, 365.4, hit, 1, 0
643, 5, T_Scon, T_Scon_DRRR, 732.9, hit, 2, 0
644, 5, T_Sinc, T_Sinc_URRR, 384.4, hit, 2, 0
645, 5, T_Sinc, T_Sinc_DGLG, 363.7, incorrect, 2, 1
646, 5, T_Sinc, T_Sinc_DGLG, 571.2, hit, 1, 0
647, 5, T_Sinc, T_Sinc_DGLG, 314.7, hit, 1, 0
648, 5, T_Scon, T_Scon_UGLG, 382.1, hit, 1, 0
649, 5, T_Scon, T_Scon_UGLG, 381.3, hit, 1, 0
650, 5, T_Scon, T_Scon_UGLG, 404.7, hit, 1, 0
651, 5, T_Scon, T_Scon_DRRR, 416.2, hit, 2, 0
652, 5, T_Scon, T_Scon_DRRR, 323.5, hit, 2, 0
653, 5, T_Scon, T_Scon_DRRR, 495.0, hit, 2, 0
654, 5, T_Sinc, T_Sinc_URRR, 434.5, hit, 2, 0
655, 5, T_Scon, T_Scon_DRRR, 341.8, hit, 2, 0
656, 5, T_Scon, T_Scon_DRRR, 281.3, hit, 2, 0
657, 5, T_Scon, T_Scon_DRRR, 344.7, hit, 2, 0
658, 5, T_Scon, T_Scon_UGLG, 496.2, hit, 1, 0
659, 5, T_Sinc, T_Sinc_URRR, 483.6, hit, 2, 0
660, 5, T_Scon, T_Scon_DRRR, 439.0, hit, 2, 0
661, 5, T_Sinc, T_Sinc_URRR, 390.5, incorrect, 1, 1
662, 5, T_Sinc, T_Sinc_DGLG, 442.0, hit, 1, 0
663, 5, T_Sinc, T_Sinc_URRR, 437.3, hit, 2, 0
664, 5, T_Scon, T_Scon_DRRR, 416.8, hit, 2, 0
665, 5, T_Sinc, T_Sinc_URRR, 380.3, hit, 2, 0
666, 5, T_Scon, T_Scon_DRRR, 367.7, hit, 2, 0
667, 5, T_Sinc, T_Sinc_DGLG, 539.1, hit, 1, 0
668, 5, T_Sinc, T_Sinc_URRR, 458.5, hit, 2, 0
669, 5, T_Scon, T_Scon_UGLG, 554.0, hit, 1, 0
670, 5, T_Sinc, T_Sinc_DGLG, 565.5, hit, 1, 0
671, 5, T_Sinc, T_Sinc_DGLG, 328.8, hit, 1, 0
672, 5, T_Scon, T_Scon_DRRR, 524.3, hit, 2, 0
673, 5, T_Sinc, T_Sinc_DGLG, 723.8, hit, 1, 0
674, 5, T_Sinc, T_Sinc_URRR, 487.1, hit, 2, 0
675, 5, T_Scon, T_Scon_UGLG, 594.6, hit, 1, 0
676, 5, T_Scon, T_Scon_UGLG, 466.1, hit, 1, 0
677, 5, T_Scon, T_Scon_DRRR, 501.5, hit, 2, 0
678, 5, T_Sinc, T_Sinc_DGLG, 656.9, hit, 1, 0
679, 5, T_Sinc, T_Sinc_URRR, 580.3, hit, 2, 0
680, 5, T_Sinc, T_Sinc_DGLG, 503.8, hit, 1, 0
681, 5, T_Scon, T_Scon_UGLG, 387.3, hit, 1, 0
682, 5, T_Sinc, T_Sinc_DGLG, 358.6, hit, 1, 0
683, 5, T_Sinc, T_Sinc_URRR, 514.1, hit, 2, 0
684, 5, T_Sinc, T_Sinc_URRR, 605.6, hit, 2, 0
685, 5, T_Sinc, T_Sinc_URRR, 564.7, hit, 2, 0
686, 5, T_Scon, T_Scon_DRRR, 384.1, hit, 2, 0
687, 5, T_Sinc, T_Sinc_DGLG, 483.6, hit, 1, 0
688, 5, T_Scon, T_Scon_UGLG, 327.0, hit, 1, 0
689, 5, T_Sinc, T_Sinc_URRR, 442.4, hit, 2, 0
690, 5, T_Sinc, T_Sinc_DGLG, 481.9, hit, 1, 0
691, 5, T_Sinc, T_Sinc_DGLG, 313.2, hit, 1, 0
692, 5, T_Scon, T_Scon_UGLG, 468.7, hit, 1, 0
693, 5, T_Sinc, T_Sinc_DGLG, 480.2, hit, 1, 0
694, 5, T_Sinc, T_Sinc_DGLG, 315.7, hit, 1, 0
695, 5, T_Sinc, T_Sinc_URRR, 335.0, hit, 2, 0
696, 5, T_Scon, T_Scon_UGLG, 498.5, hit, 1, 0
697, 5, T_Scon, T_Scon_UGLG, 701.9, hit, 1, 0
698, 5, T_Scon, T_Scon_UGLG, 321.4, hit, 1, 0
699, 5, T_Scon, T_Scon_UGLG, 348.8, hit, 1, 0
700, 5, T_Scon, T_Scon_UGLG, 384.2, hit, 1, 0
701, 5, T_Sinc, T_Sinc_DGLG, 659.7, hit, 1, 0
702, 5, T_Sinc, T_Sinc_URRR, 531.2, hit, 2, 0
703, 5, T_Scon, T_Scon_UGLG, 618.5, hit, 1, 0
704, 5, T_Sinc, T_Sinc_DGLG, 506.0, hit, 1, 0
705, 5, T_Sinc, T_Sinc_URRR, 481.5, hit, 2, 0
706, 5, T_Sinc, T_Sinc_DGLG, 580.9, hit, 1, 0
707, 5, T_Scon, T_Scon_DRRR, 528.3, hit, 2, 0
708, 5, T_Scon, T_Scon_DRRR, 459.8, hit, 2, 0
709, 5, T_Sinc, T_Sinc_DGLG, 567.2, hit, 1, 0
710, 5, T_Scon, T_Scon_UGLG, 486.6, hit, 1, 0
711, 5, T_Scon, T_Scon_DRRR, 462.1, hit, 2, 0
712, 5, T_Sinc, T_Sinc_URRR, 553.5, hit, 2, 0
713, 5, T_Scon, T_Scon_DRRR, 465.0, hit, 2, 0
714, 5, T_Scon, T_Scon_UGLG, 472.3, hit, 1, 0
715, 5, T_Scon, T_Scon_UGLG, 491.8, hit, 1, 0
716, 5, T_Sinc, T_Sinc_URRR, 571.3, hit, 2, 0
717, 5, T_Sinc, T_Sinc_DGLG, 510.7, hit, 1, 0
718, 5, T_Scon, T_Scon_DRRR, 434.1, hit, 2, 0
719, 5, T_Sinc, T_Sinc_URRR, 377.6, hit, 2, 0
720, 5, T_Sinc, T_Sinc_URRR, 493.0, hit, 2, 0
721, 6, T_Scon, T_Scon_UGLG, 542.7, hit, 1, 0
722, 6, T_Sinc, T_Sinc_URRR, 410.1, hit, 2, 0
723, 6, T_Sinc, T_Sinc_DGLG, 361.6, hit, 1, 0
724, 6, T_Sinc, T_Sinc_URRR, 565.0, hit, 2, 0
725, 6, T_Sinc, T_Sinc_URRR, 312.4, hit, 2, 0
726, 6, T_Sinc, T_Sinc_DGLG, 703.8, hit, 1, 0
727, 6, T_Scon, T_Scon_UGLG, 291.3, hit, 1, 0
728, 6, T_Sinc, T_Sinc_DGLG, 390.7, hit, 1, 0
729, 6, T_Scon, T_Scon_DRRR, 506.3, hit, 2, 0
730, 6, T_Sinc, T_Sinc_DGLG, 385.6, hit, 1, 0
731, 6, T_Scon, T_Scon_DRRR, 461.1, hit, 2, 0
732, 6, T_Sinc, T_Sinc_URRR, 568.5, hit, 2, 0
733, 6, T_Scon, T_Scon_DRRR, 475.9, hit, 2, 0
734, 6, T_Sinc, T_Sinc_URRR, 399.3, hit, 2, 0
735, 6, T_Scon, T_Scon_DRRR, 514.8, hit, 2, 0
736, 6, T_Sinc, T_Sinc_DGLG, 458.3, hit, 1, 0
737, 6, T_Sinc, T_Sinc_URRR, 433.6, hit, 2, 0
738, 6, T_Sinc, T_Sinc_DGLG, 477.1, hit, 1, 0
739, 6, T_Scon, T_Scon_UGLG, 392.6, hit, 1, 0
740, 6, T_Sinc, T_Sinc_URRR, 432.0, hit, 2, 0
741, 6, T_Scon, T_Scon_DRRR, 335.4, hit, 2, 0
742, 6, T_Sinc, T_Sinc_URRR, 382.9, hit, 2, 0
743, 6, T_Sinc, T_Sinc_DGLG, 770.3, hit, 1, 0
744, 6, T_Sinc, T_Sinc_DGLG, 301.8, hit, 1, 0
745, 6, T_Sinc, T_Sinc_DGLG, 313.2, hit, 1, 0
746, 6, T_Scon, T_Scon_UGLG, 308.6, hit, 1, 0
747, 6, T_Sinc, T_Sinc_DGLG, 520.1, hit, 1, 0
748, 6, T_Sinc, T_Sinc_URRR, 483.5, hit, 2, 0
749, 6, T_Scon, T_Scon_UGLG, 582.9, hit, 1, 0
750, 6, T_Sinc, T_Sinc_DGLG, 646.4, hit, 1, 0
751, 6, T_Sinc, T_Sinc_URRR, 493.7, hit, 2, 0
752, 6, T_Scon, T_Scon_UGLG, 473.2, hit, 1, 0
753, 6, T_Sinc, T_Sinc_DGLG, 500.7, hit, 1, 0
754, 6, T_Sinc, T_Sinc_URRR, 496.1, hit, 2, 0
755, 6, T_Sinc, T_Sinc_DGLG, 315.5, hit, 1, 0
756, 6, T_Scon, T_Scon_UGLG, 327.0, hit, 1, 0
757, 6, T_Sinc, T_Sinc_DGLG, 362.2, hit, 1, 0
758, 6, T_Sinc, T_Sinc_DGLG, 329.5, hit, 1, 0
759, 6, T_Sinc, T_Sinc_URRR, 509.0, hit, 2, 0
760, 6, T_Scon, T_Scon_DRRR, 376.5, hit, 2, 0
761, 6, T_Scon, T_Scon_DRRR, 387.8, hit, 2, 0
762, 6, T_Sinc, T_Sinc_URRR, 455.3, hit, 2, 0
763, 6, T_Sinc, T_Sinc_URRR, 426.8, hit, 2, 0
764, 6, T_Scon, T_Scon_DRRR, 282.2, hit, 2, 0
765, 6, T_Scon, T_Scon_DRRR, 325.6, hit, 2, 0
766, 6, T_Scon, T_Scon_DRRR, 533.1, hit, 2, 0
767, 6, T_Sinc, T_Sinc_URRR, 420.5, hit, 2, 0
768, 6, T_Sinc, T_Sinc_DGLG, 239.9, incorrect, 2, 1
769, 6, T_Scon, T_Scon_DRRR, 459.3, hit, 2, 0
770, 6, T_Sinc, T_Sinc_DGLG, 354.8, hit, 1, 0
771, 6, T_Scon, T_Scon_UGLG, 378.3, hit, 1, 0
772, 6, T_Sinc, T_Sinc_DGLG, 357.6, hit, 1, 0
773, 6, T_Sinc, T_Sinc_DGLG, 385.1, hit, 1, 0
774, 6, T_Scon, T_Scon_DRRR, 740.6, hit, 2, 0
775, 6, T_Scon, T_Scon_DRRR, 336.0, hit, 2, 0
776, 6, T_Sinc, T_Sinc_DGLG, 535.4, hit, 1, 0
777, 6, T_Scon, T_Scon_UGLG, 382.8, hit, 1, 0
778, 6, T_Scon, T_Scon_DRRR, 390.3, hit, 2, 0
779, 6, T_Scon, T_Scon_DRRR, 537.8, hit, 2, 0
780, 6, T_Sinc, T_Sinc_DGLG, 637.1, hit, 1, 0
781, 6, T_Scon, T_Scon_UGLG, 452.6, hit, 1, 0
782, 6, T_Scon, T_Scon_DRRR, 500.1, hit, 2, 0
783, 6, T_Sinc, T_Sinc_DGLG, 511.6, hit, 1, 0
784, 6, T_Sinc, T_Sinc_DGLG, 290.9, hit, 1, 0
785, 6, T_Sinc, T_Sinc_URRR, 462.4, hit, 2, 0
786, 6, T_Scon, T_Scon_UGLG, 593.8, hit, 1, 0
787, 6, T_Scon, T_Scon_UGLG, 577.3, hit, 1, 0
788, 6, T_Scon, T_Scon_UGLG, 340.6, hit, 1, 0
789, 6, T_Scon, T_Scon_DRRR, 496.1, hit, 2, 0
790, 6, T_Scon, T_Scon_UGLG, 487.6, hit, 1, 0
791, 6, T_Sinc, T_Sinc_URRR, 515.0, hit, 2, 0
792, 6, T_Sinc, T_Sinc_URRR, 450.4, hit, 2, 0
793, 6, T_Sinc, T_Sinc_URRR, 465.7, hit, 2, 0
794, 6, T_Scon, T_Scon_DRRR, 637.1, hit, 2, 0
795, 6, T_Scon, T_Scon_DRRR, 280.4, hit, 2, 0
796, 6, T_Sinc, T_Sinc_URRR, 379.9, hit, 2, 0
797, 6, T_Scon, T_Scon_UGLG, 415.4, hit, 1, 0
798, 6, T_Scon, T_Scon_DRRR, 366.7, hit, 2, 0
799, 6, T_Sinc, T_Sinc_URRR, 442.2, hit, 2, 0
800, 6, T_Sinc, T_Sinc_DGLG, 545.7, hit, 1, 0
801, 6, T_Scon, T_Scon_UGLG, 205.1, incorrect, 2, 1
802, 6, T_Scon, T_Scon_UGLG, 528.5, hit, 1, 0
803, 6, T_Sinc, T_Sinc_URRR, 588.0, hit, 2, 0
804, 6, T_Scon, T_Scon_UGLG, 503.4, hit, 1, 0
805, 6, T_Scon, T_Scon_DRRR, 474.9, hit, 2, 0
806, 6, T_Scon, T_Scon_DRRR, 318.2, hit, 2, 0
807, 6, T_Scon, T_Scon_UGLG, 325.7, hit, 1, 0
808, 6, T_Sinc, T_Sinc_DGLG, 385.2, hit, 1, 0
809, 6, T_Sinc, T_Sinc_DGLG, 376.6, hit, 1, 0
810, 6, T_Scon, T_Scon_UGLG, 352.0, hit, 1, 0
811, 6, T_Scon, T_Scon_UGLG, 471.5, hit, 1, 0
812, 6, T_Scon, T_Scon_UGLG, 298.9, hit, 1, 0
813, 6, T_Sinc, T_Sinc_URRR, 666.3, hit, 2, 0
814, 6, T_Sinc, T_Sinc_DGLG, 477.8, hit, 1, 0
815, 6, T_Scon, T_Scon_UGLG, 341.2, hit, 1, 0
816, 6, T_Scon, T_Scon_DRRR, 544.7, hit, 2, 0
817, 6, T_Scon, T_Scon_DRRR, 320.1, hit, 2, 0
818, 6, T_Sinc, T_Sinc_DGLG, 471.5, hit, 1, 0
819, 6, T_Sinc, T_Sinc_DGLG, 355.0, hit, 1, 0
820, 6, T_Sinc, T_Sinc_URRR, 438.3, hit, 2, 0
821, 6, T_Sinc, T_Sinc_URRR, 361.8, hit, 2, 0
822, 6, T_Sinc, T_Sinc_DGLG, 389.3, hit, 1, 0
823, 6, T_Scon, T_Scon_DRRR, 480.7, hit, 2, 0
824, 6, T_Scon, T_Scon_DRRR, 396.1, hit, 2, 0
825, 6, T_Scon, T_Scon_DRRR, 615.6, hit, 2, 0
826, 6, T_Scon, T_Scon_UGLG, 475.0, hit, 1, 0
827, 6, T_Scon, T_Scon_DRRR, 550.5, hit, 2, 0
828, 6, T_Scon, T_Scon_DRRR, 369.9, hit, 2, 0
829, 6, T_Sinc, T_Sinc_URRR, 509.1, hit, 2, 0
830, 6, T_Sinc, T_Sinc_URRR, 372.5, hit, 2, 0
831, 6, T_Sinc, T_Sinc_DGLG, 463.9, hit, 1, 0
832, 6, T_Sinc, T_Sinc_URRR, 419.4, hit, 2, 0
833, 6, T_Scon, T_Scon_UGLG, 422.8, hit, 1, 0
834, 6, T_Scon, T_Scon_UGLG, 306.2, hit, 1, 0
835, 6, T_Scon, T_Scon_UGLG, 289.7, hit, 1, 0
836, 6, T_Scon, T_Scon_DRRR, 573.1, hit, 2, 0
837, 6, T_Sinc, T_Sinc_URRR, 360.5, hit, 2, 0
838, 6, T_Scon, T_Scon_UGLG, 451.9, hit, 1, 0
839, 6, T_Sinc, T_Sinc_URRR, 523.4, hit, 2, 0
840, 6, T_Scon, T_Scon_UGLG, 318.9, hit, 1, 0
841, 6, T_Scon, T_Scon_DRRR, 682.2, hit, 2, 0
842, 6, T_Scon, T_Scon_DRRR, 533.7, hit, 2, 0
843, 6, T_Sinc, T_Sinc_DGLG, 497.2, hit, 1, 0
844, 6, T_Scon, T_Scon_UGLG, 316.6, hit, 1, 0
845, 6, T_Scon, T_Scon_UGLG, 288.0, hit, 1, 0
846, 6, T_Scon, T_Scon_UGLG, 291.5, hit, 1, 0
847, 6, T_Sinc, T_Sinc_URRR, 462.9, hit, 2, 0
848, 6, T_Scon, T_Scon_DRRR, 302.4, hit, 2, 0
849, 6, T_Scon, T_Scon_DRRR, 321.7, hit, 2, 0
850, 6, T_Sinc, T_Sinc_URRR, 417.2, hit, 2, 0
851, 6, T_Scon, T_Scon_UGLG, 480.7, hit, 1, 0
852, 6, T_Sinc, T_Sinc_URRR, 644.1, hit, 2, 0
853, 6, T_Sinc, T_Sinc_URRR, 303.5, hit, 2, 0
854, 6, T_Sinc, T_Sinc_DGLG, 591.0, hit, 1, 0
855, 6, T_Sinc, T_Sinc_DGLG, 506.4, hit, 1, 0
856, 6, T_Sinc, T_Sinc_URRR, 869.8, hit, 2, 2
857, 6, T_Scon, T_Scon_UGLG, 565.3, hit, 1, 0
858, 6, T_Sinc, T_Sinc_URRR, 512.7, hit, 2, 0
859, 6, T_Scon, T_Scon_DRRR, 396.2, hit, 2, 0
860, 6, T_Scon, T_Scon_UGLG, 391.6, hit, 1, 0
861, 6, T_Scon, T_Scon_UGLG, 371.0, hit, 1, 0
862, 6, T_Sinc, T_Sinc_DGLG, 322.5, incorrect, 2, 1
863, 6, T_Scon, T_Scon_DRRR, 505.9, hit, 2, 0
864, 6, T_Sinc, T_Sinc_DGLG, 305.3, hit, 1, 0
865, 7, T_Sinc, T_Sinc_URRR, 578.4, hit, 2, 0
866, 7, T_Sinc, T_Sinc_URRR, 289.8, hit, 2, 0
867, 7, T_Sinc, T_Sinc_DGLG, 469.3, hit, 1, 0
868, 7, T_Scon, T_Scon_UGLG, 308.7, hit, 1, 0
869, 7, T_Scon, T_Scon_UGLG, 220.1, hit, 1, 0
870, 7, T_Sinc, T_Sinc_URRR, 651.6, hit, 2, 0
871, 7, T_Scon, T_Scon_DRRR, 391.1, incorrect, 1, 1
872, 7, T_Scon, T_Scon_UGLG, 342.4, hit, 1, 0
873, 7, T_Sinc, T_Sinc_DGLG, 321.9, hit, 1, 0
874, 7, T_Sinc, T_Sinc_DGLG, 357.3, hit, 1, 0
875, 7, T_Scon, T_Scon_DRRR, 472.7, hit, 2, 0
876, 7, T_Sinc, T_Sinc_URRR, 312.2, hit, 2, 0
877, 7, T_Scon, T_Scon_UGLG, 483.6, hit, 1, 0
878, 7, T_Sinc, T_Sinc_DGLG, 411.0, hit, 1, 0
879, 7, T_Scon, T_Scon_UGLG, 438.5, hit, 1, 0
880, 7, T_Scon, T_Scon_DRRR, 461.9, hit, 2, 0
881, 7, T_Sinc, T_Sinc_URRR, 385.4, hit, 2, 0
882, 7, T_Scon, T_Scon_DRRR, 328.8, hit, 2, 0
883, 7, T_Sinc, T_Sinc_DGLG, 476.2, hit, 1, 0
884, 7, T_Scon, T_Scon_UGLG, 359.7, hit, 1, 0
885, 7, T_Scon, T_Scon_DRRR, 523.2, hit, 2, 0
886, 7, T_Scon, T_Scon_UGLG, 482.5, hit, 1, 0
887, 7, T_Scon, T_Scon_UGLG, 358.0, hit, 1, 0
888, 7, T_Sinc, T_Sinc_DGLG, 509.4, hit, 1, 0
889, 7, T_Sinc, T_Sinc_URRR, 480.8, hit, 2, 0
890, 7, T_Scon, T_Scon_DRRR, 284.3, hit, 2, 0
891, 7, T_Sinc, T_Sinc_DGLG, 511.7, hit, 1, 0
892, 7, T_Scon, T_Scon_UGLG, 355.2, hit, 1, 0
893, 7, T_Scon, T_Scon_DRRR, 414.6, hit, 2, 0
894, 7, T_Sinc, T_Sinc_DGLG, 542.0, hit, 1, 0
895, 7, T_Scon, T_Scon_UGLG, 449.5, hit, 1, 0
896, 7, T_Scon, T_Scon_DRRR, 544.9, hit, 2, 0
897, 7, T_Sinc, T_Sinc_URRR, 404.3, hit, 2, 0
898, 7, T_Sinc, T_Sinc_DGLG, 679.8, hit, 1, 0
899, 7, T_Sinc, T_Sinc_DGLG, 411.2, hit, 1, 0
900, 7, T_Scon, T_Scon_UGLG, 358.6, hit, 1, 0
901, 7, T_Scon, T_Scon_UGLG, 413.8, hit, 1, 0
902, 7, T_Sinc, T_Sinc_URRR, 637.2, hit, 2, 0
903, 7, T_Sinc, T_Sinc_DGLG, 476.6, hit, 1, 0
904, 7, T_Sinc, T_Sinc_URRR, 448.1, hit, 2, 0
905, 7, T_Scon, T_Scon_UGLG, 315.5, hit, 1, 0
906, 7, T_Sinc, T_Sinc_URRR, 398.9, hit, 2, 0
907, 7, T_Scon, T_Scon_UGLG, 458.4, hit, 1, 0
908, 7, T_Scon, T_Scon_DRRR, 457.9, hit, 2, 0
909, 7, T_Sinc, T_Sinc_URRR, 365.2, hit, 2, 0
910, 7, T_Scon, T_Scon_UGLG, 392.7, hit, 1, 0
911, 7, T_Sinc, T_Sinc_URRR, 468.2, hit, 2, 0
912, 7, T_Scon, T_Scon_UGLG, 287.6, hit, 1, 0
913, 7, T_Scon, T_Scon_UGLG, 275.0, hit, 1, 0
914, 7, T_Scon, T_Scon_UGLG, 414.4, hit, 1, 0
915, 7, T_Sinc, T_Sinc_DGLG, 649.9, hit, 1, 0
916, 7, T_Scon, T_Scon_DRRR, 565.4, hit, 2, 0
917, 7, T_Scon, T_Scon_UGLG, 380.7, hit, 1, 0
918, 7, T_Sinc, T_Sinc_URRR, 952.2, hit, 2, 2
919, 7, T_Scon, T_Scon_DRRR, 339.7, hit, 2, 0
920, 7, T_Sinc, T_Sinc_DGLG, 483.0, hit, 1, 0
921, 7, T_Scon, T_Scon_UGLG, 334.5, hit, 1, 0
922, 7, T_Scon, T_Scon_DRRR, 550.0, hit, 2, 0
923, 7, T_Scon, T_Scon_UGLG, 481.5, hit, 1, 0
924, 7, T_Scon, T_Scon_UGLG, 548.8, hit, 1, 0
925, 7, T_Scon, T_Scon_UGLG, 328.3, hit, 1, 0
926, 7, T_Scon, T_Scon_UGLG, 279.7, hit, 1, 0
927, 7, T_Sinc, T_Sinc_DGLG, 483.2, hit, 1, 0
928, 7, T_Sinc, T_Sinc_URRR, 634.6, hit, 2, 0
929, 7, T_Sinc, T_Sinc_URRR, 286.0, hit, 2, 0
930, 7, T_Sinc, T_Sinc_DGLG, 473.5, hit, 1, 0
931, 7, T_Scon, T_Scon_DRRR, 748.9, hit, 2, 0
932, 7, T_Sinc, T_Sinc_DGLG, 592.3, hit, 1, 0
933, 7, T_Sinc, T_Sinc_URRR, 443.8, hit, 2, 0
934, 7, T_Sinc, T_Sinc_DGLG, 287.2, hit, 1, 0
935, 7, T_Sinc, T_Sinc_URRR, 386.7, hit, 2, 0
936, 7, T_Sinc, T_Sinc_URRR, 438.0, hit, 2, 0
937, 7, T_Scon, T_Scon_DRRR, 497.3, hit, 2, 0
938, 7, T_Sinc, T_Sinc_DGLG, 304.7, incorrect, 2, 1
939, 7, T_Scon, T_Scon_UGLG, 380.1, hit, 1, 0
940, 7, T_Sinc, T_Sinc_URRR, 623.6, hit, 2, 0
941, 7, T_Sinc, T_Sinc_DGLG, 483.0, hit, 1, 0
942, 7, T_Scon, T_Scon_DRRR, 426.5, hit, 2, 0
943, 7, T_Scon, T_Scon_UGLG, 425.8, hit, 1, 0
944, 7, T_Scon, T_Scon_DRRR, 461.3, hit, 2, 0
945, 7, T_Scon, T_Scon_UGLG, 280.8, hit, 1, 0
946, 7, T_Scon, T_Scon_UGLG, 280.2, hit, 1, 0
947, 7, T_Scon, T_Scon_UGLG, 287.6, hit, 1, 0
948, 7, T_Scon, T_Scon_DRRR, 451.1, hit, 2, 0
949, 7, T_Scon, T_Scon_UGLG, 486.5, hit, 1, 0
950, 7, T_Scon, T_Scon_DRRR, 430.0, hit, 2, 0
951, 7, T_Scon, T_Scon_DRRR, 453.4, hit, 2, 0
952, 7, T_Scon, T_Scon_DRRR, 352.8, hit, 2, 0
953, 7, T_Scon, T_Scon_DRRR, 420.3, hit, 2, 0
954, 7, T_Sinc, T_Sinc_DGLG, 631.7, hit, 1, 0
955, 7, T_Sinc, T_Sinc_URRR, 511.1, hit, 2, 0
956, 7, T_Sinc, T_Sinc_URRR, 498.6, hit, 2, 0
957, 7, T_Sinc, T_Sinc_DGLG, 574.0, hit, 1, 0
958, 7, T_Sinc, T_Sinc_DGLG, 321.5, hit, 1, 0
959, 7, T_Sinc, T_Sinc_DGLG, 332.9, hit, 1, 0
960, 7, T_Sinc, T_Sinc_DGLG, 292.3, hit, 1, 0
961, 7, T_Sinc, T_Sinc_URRR, 591.8, hit, 2, 0
962, 7, T_Scon, T_Scon_UGLG, 595.2, hit, 1, 0
963, 7, T_Sinc, T_Sinc_DGLG, 546.6, hit, 1, 0
964, 7, T_Sinc, T_Sinc_DGLG, 326.1, hit, 1, 0
965, 7, T_Sinc, T_Sinc_DGLG, 309.6, hit, 1, 0
966, 7, T_Sinc, T_Sinc_DGLG, 364.9, hit, 1, 0
967, 7, T_Scon, T_Scon_DRRR, 448.4, hit, 2, 0
968, 7, T_Sinc, T_Sinc_URRR, 547.9, hit, 2, 0
969, 7, T_Scon, T_Scon_DRRR, 475.2, hit, 2, 0
970, 7, T_Sinc, T_Sinc_URRR, 358.7, hit, 2, 0
971, 7, T_Scon, T_Scon_DRRR, 406.1, hit, 2, 0
972, 7, T_Sinc, T_Sinc_URRR, 345.6, hit, 2, 0
973, 7, T_Sinc, T_Sinc_URRR, 540.7, hit, 2, 0
974, 7, T_Scon, T_Scon_DRRR, 496.2, hit, 2, 0
975, 7, T_Sinc, T_Sinc_URRR, 359.6, hit, 2, 0
976, 7, T_Sinc, T_Sinc_URRR, 275.0, hit, 2, 0
977, 7, T_Sinc, T_Sinc_DGLG, 430.5, hit, 1, 0
978, 7, T_Sinc, T_Sinc_DGLG, 261.9, hit, 1, 0
979, 7, T_Sinc, T_Sinc_URRR, 441.4, hit, 2, 0
980, 7, T_Sinc, T_Sinc_URRR, 372.8, hit, 2, 0
981, 7, T_Scon, T_Scon_DRRR, 376.2, hit, 2, 0
982, 7, T_Sinc, T_Sinc_URRR, 311.7, hit, 2, 0
983, 7, T_Sinc, T_Sinc_DGLG, 531.2, hit, 1, 0
984, 7, T_Sinc, T_Sinc_URRR, 422.5, hit, 2, 0
985, 7, T_Scon, T_Scon_UGLG, 586.0, hit, 1, 0
986, 7, T_Scon, T_Scon_DRRR, 461.4, hit, 2, 0
987, 7, T_Scon, T_Scon_DRRR, 452.8, hit, 2, 0
988, 7, T_Sinc, T_Sinc_DGLG, 340.3, incorrect, 2, 1
989, 7, T_Sinc, T_Sinc_DGLG, 431.7, hit, 1, 0
990, 7, T_Scon, T_Scon_DRRR, 763.2, hit, 2, 2
991, 7, T_Scon, T_Scon_DRRR, 486.6, hit, 2, 0
992, 7, T_Scon, T_Scon_DRRR, 318.0, hit, 2, 0
993, 7, T_Sinc, T_Sinc_URRR, 421.5, incorrect, 1, 1
994, 7, T_Scon, T_Scon_DRRR, 393.0, hit, 2, 0
995, 7, T_Scon, T_Scon_UGLG, 560.3, hit, 1, 0
996, 7, T_Scon, T_Scon_DRRR, 403.8, hit, 2, 0
997, 7, T_Scon, T_Scon_DRRR, 367.3, hit, 2, 0
998, 7, T_Sinc, T_Sinc_DGLG, 530.6, hit, 1, 0
999, 7, T_Scon, T_Scon_UGLG, 374.1, hit, 1, 0
1000, 7, T_Scon, T_Scon_UGLG, 657.5, hit, 1, 0
1001, 7, T_Sinc, T_Sinc_URRR, 401.0, hit, 2, 0
1002, 7, T_Scon, T_Scon_DRRR, 380.5, hit, 2, 0
1003, 7, T_Scon, T_Scon_UGLG, 627.8, hit, 1, 0
1004, 7, T_Sinc, T_Sinc_DGLG, 599.3, hit, 1, 0
1005, 7, T_Sinc, T_Sinc_DGLG, 702.8, hit, 1, 0
1006, 7, T_Sinc, T_Sinc_URRR, 482.2, hit, 2, 0
1007, 7, T_Scon, T_Scon_DRRR, 501.6, hit, 2, 0
1008, 7, T_Sinc, T_Sinc_URRR, 361.1, hit, 2, 0
1009, 8, T_Sinc, T_Sinc_URRR, 587.3, hit, 2, 0
1010, 8, T_Sinc, T_Sinc_DGLG, 414.7, hit, 1, 0
1011, 8, T_Sinc, T_Sinc_DGLG, 358.2, hit, 1, 0
1012, 8, T_Sinc, T_Sinc_URRR, 425.5, hit, 2, 0
1013, 8, T_Sinc, T_Sinc_URRR, 297.0, hit, 2, 0
1014, 8, T_Sinc, T_Sinc_DGLG, 528.4, hit, 1, 0
1015, 8, T_Sinc, T_Sinc_URRR, 327.8, hit, 2, 0
1016, 8, T_Sinc, T_Sinc_DGLG, 491.3, hit, 1, 0
1017, 8, T_Scon, T_Scon_UGLG, 302.8, hit, 1, 0
1018, 8, T_Scon, T_Scon_UGLG, 318.2, hit, 1, 0
1019, 8, T_Scon, T_Scon_DRRR, 417.7, hit, 2, 0
1020, 8, T_Sinc, T_Sinc_URRR, 337.0, hit, 2, 0
1021, 8, T_Scon, T_Scon_UGLG, 484.5, hit, 1, 0
1022, 8, T_Scon, T_Scon_DRRR, 576.0, hit, 2, 0
1023, 8, T_Scon, T_Scon_DRRR, 335.3, hit, 2, 0
1024, 8, T_Scon, T_Scon_UGLG, 658.8, hit, 1, 0
1025, 8, T_Scon, T_Scon_DRRR, 358.3, hit, 2, 0
1026, 8, T_Scon, T_Scon_UGLG, 409.7, hit, 1, 0
1027, 8, T_Scon, T_Scon_UGLG, 357.2, hit, 1, 0
1028, 8, T_Scon, T_Scon_UGLG, 328.5, hit, 1, 0
1029, 8, T_Sinc, T_Sinc_URRR, 780.0, hit, 2, 0
1030, 8, T_Scon, T_Scon_DRRR, 351.5, hit, 2, 0
1031, 8, T_Scon, T_Scon_DRRR, 382.9, hit, 2, 0
1032, 8, T_Sinc, T_Sinc_URRR, 482.3, hit, 2, 0
1033, 8, T_Scon, T_Scon_UGLG, 565.8, hit, 1, 0
1034, 8, T_Sinc, T_Sinc_DGLG, 885.2, hit, 1, 2
1035, 8, T_Scon, T_Scon_DRRR, 456.6, hit, 2, 0
1036, 8, T_Scon, T_Scon_UGLG, 280.1, hit, 1, 0
1037, 8, T_Scon, T_Scon_DRRR, 399.5, hit, 2, 0
1038, 8, T_Sinc, T_Sinc_URRR, 371.0, hit, 2, 0
1039, 8, T_Scon, T_Scon_UGLG, 406.4, hit, 1, 0
1040, 8, T_Sinc, T_Sinc_URRR, 441.8, hit, 2, 0
1041, 8, T_Scon, T_Scon_DRRR, 413.2, hit, 2, 0
1042, 8, T_Scon, T_Scon_UGLG, 320.7, hit, 1, 0
1043, 8, T_Sinc, T_Sinc_DGLG, 388.1, hit, 1, 0
1044, 8, T_Sinc, T_Sinc_DGLG, 471.6, hit, 1, 0
1045, 8, T_Sinc, T_Sinc_DGLG, 390.7, hit, 1, 0
1046, 8, T_Scon, T_Scon_DRRR, 530.1, hit, 2, 0
1047, 8, T_Scon, T_Scon_DRRR, 273.6, hit, 2, 0
1048, 8, T_Sinc, T_Sinc_DGLG, 509.0, hit, 1, 0
1049, 8, T_Sinc, T_Sinc_DGLG, 248.4, hit, 1, 0
1050, 8, T_Scon, T_Scon_DRRR, 515.9, hit, 2, 0
1051, 8, T_Scon, T_Scon_DRRR, 287.4, hit, 2, 0
1052, 8, T_Sinc, T_Sinc_DGLG, 410.7, hit, 1, 0
1053, 8, T_Scon, T_Scon_DRRR, 622.2, hit, 2, 0
1054, 8, T_Sinc, T_Sinc_URRR, 569.6, hit, 2, 0
1055, 8, T_Scon, T_Scon_DRRR, 317.1, hit, 2, 0
1056, 8, T_Scon, T_Scon_UGLG, 400.5, hit, 1, 0
1057, 8, T_Sinc, T_Sinc_URRR, 487.9, hit, 2, 0
1058, 8, T_Sinc, T_Sinc_DGLG, 587.4, hit, 1, 0
1059, 8, T_Sinc, T_Sinc_DGLG, 458.9, hit, 1, 0
1060, 8, T_Sinc, T_Sinc_DGLG, 278.2, hit, 1, 0
1061, 8, T_Scon, T_Scon_DRRR, 549.7, hit, 2, 0
1062, 8, T_Scon, T_Scon_UGLG, 409.2, hit, 1, 0
1063, 8, T_Sinc, T_Sinc_DGLG, 816.6, hit, 1, 0
1064, 8, T_Sinc, T_Sinc_URRR, 416.0, hit, 2, 0
1065, 8, T_Sinc, T_Sinc_DGLG, 291.5, hit, 1, 0
1066, 8, T_Scon, T_Scon_UGLG, 414.9, hit, 1, 0
1067, 8, T_Sinc, T_Sinc_URRR, 610.3, hit, 2, 0
1068, 8, T_Sinc, T_Sinc_DGLG, 525.8, hit, 1, 0
1069, 8, T_Sinc, T_Sinc_URRR, 393.2, hit, 2, 0
1070, 8, T_Scon, T_Scon_UGLG, 404.7, hit, 1, 0
1071, 8, T_Scon, T_Scon_UGLG, 292.1, hit, 1, 0
1072, 8, T_Sinc, T_Sinc_DGLG, 483.5, hit, 1, 0
1073, 8, T_Scon, T_Scon_DRRR, 399.0, hit, 2, 0
1074, 8, T_Sinc, T_Sinc_DGLG, 274.5, hit, 1, 0
1075, 8, T_Scon, T_Scon_UGLG, 453.8, hit, 1, 0
1076, 8, T_Scon, T_Scon_DRRR, 429.3, hit, 2, 0
1077, 8, T_Sinc, T_Sinc_URRR, 352.7, hit, 2, 0
1078, 8, T_Scon, T_Scon_DRRR, 252.1, hit, 2, 0
1079, 8, T_Scon, T_Scon_UGLG, 635.6, hit, 1, 0
1080, 8, T_Sinc, T_Sinc_DGLG, 415.0, hit, 1, 0
1081, 8, T_Scon, T_Scon_DRRR, 458.2, hit, 2, 0
1082, 8, T_Sinc, T_Sinc_URRR, 337.6, hit, 2, 0
1083, 8, T_Sinc, T_Sinc_URRR, 317.1, hit, 2, 0
1084, 8, T_Sinc, T_Sinc_DGLG, 288.4, hit, 1, 0
1085, 8, T_Sinc, T_Sinc_DGLG, 299.9, hit, 1, 0
1086, 8, T_Scon, T_Scon_UGLG, 295.4, hit, 1, 0
1087, 8, T_Scon, T_Scon_UGLG, 490.8, hit, 1, 0
1088, 8, T_Scon, T_Scon_UGLG, 382.2, hit, 1, 0
1089, 8, T_Scon, T_Scon_UGLG, 285.6, hit, 1, 0
1090, 8, T_Sinc, T_Sinc_URRR, 485.1, hit, 2, 0
1091, 8, T_Sinc, T_Sinc_DGLG, 728.6, hit, 1, 0
1092, 8, T_Scon, T_Scon_DRRR, 184.0, incorrect, 1, 1
1093, 8, T_Sinc, T_Sinc_URRR, 507.4, hit, 2, 0
1094, 8, T_Sinc, T_Sinc_DGLG, 710.9, hit, 1, 0
1095, 8, T_Scon, T_Scon_UGLG, 322.2, hit, 1, 0
1096, 8, T_Sinc, T_Sinc_DGLG, 325.7, hit, 1, 0
1097, 8, T_Sinc, T_Sinc_URRR, 473.1, hit, 2, 0
1098, 8, T_Scon, T_Scon_DRRR, 368.6, hit, 2, 0
1099, 8, T_Sinc, T_Sinc_URRR, 356.0, hit, 2, 0
1100, 8, T_Sinc, T_Sinc_URRR, 331.5, hit, 2, 0
1101, 8, T_Scon, T_Scon_UGLG, 462.9, hit, 1, 0
1102, 8, T_Scon, T_Scon_DRRR, 358.4, hit, 2, 0
1103, 8, T_Sinc, T_Sinc_URRR, 321.7, hit, 2, 0
1104, 8, T_Sinc, T_Sinc_URRR, 285.2, hit, 2, 0
1105, 8, T_Sinc, T_Sinc_DGLG, 492.7, hit, 1, 0
1106, 8, T_Sinc, T_Sinc_URRR, 600.1, hit, 2, 0
1107, 8, T_Sinc, T_Sinc_DGLG, 375.5, hit, 1, 0
1108, 8, T_Sinc, T_Sinc_DGLG, 419.0, hit, 1, 0
1109, 8, T_Scon, T_Scon_DRRR, 406.4, hit, 2, 0
1110, 8, T_Scon, T_Scon_UGLG, 465.9, hit, 1, 0
1111, 8, T_Scon, T_Scon_UGLG, 333.3, hit, 1, 0
1112, 8, T_Scon, T_Scon_DRRR, 376.7, hit, 2, 0
1113, 8, T_Scon, T_Scon_DRRR, 464.2, hit, 2, 0
1114, 8, T_Sinc, T_Sinc_DGLG, 491.6, hit, 1, 0
1115, 8, T_Scon, T_Scon_UGLG, 399.0, hit, 1, 0
1116, 8, T_Scon, T_Scon_DRRR, 374.5, hit, 2, 0
1117, 8, T_Scon, T_Scon_UGLG, 469.6, hit, 1, 0
1118, 8, T_Scon, T_Scon_DRRR, 413.0, hit, 2, 0
1119, 8, T_Scon, T_Scon_UGLG, 344.5, hit, 1, 0
1120, 8, T_Scon, T_Scon_DRRR, 352.0, hit, 2, 0
1121, 8, T_Sinc, T_Sinc_URRR, 399.3, incorrect, 1, 1
1122, 8, T_Sinc, T_Sinc_URRR, 422.8, hit, 2, 0
1123, 8, T_Scon, T_Scon_UGLG, 474.3, hit, 1, 0
1124, 8, T_Scon, T_Scon_UGLG, 333.6, hit, 1, 0
1125, 8, T_Sinc, T_Sinc_URRR, 445.1, incorrect, 1, 1
1126, 8, T_Scon, T_Scon_DRRR, 372.6, hit, 2, 0
1127, 8, T_Sinc, T_Sinc_URRR, 392.0, hit, 2, 0
1128, 8, T_Scon, T_Scon_UGLG, 639.4, hit, 1, 0
1129, 8, T_Scon, T_Scon_UGLG, 590.9, hit, 1, 0
1130, 8, T_Sinc, T_Sinc_DGLG, 442.3, hit, 1, 0
1131, 8, T_Sinc, T_Sinc_URRR, 469.7, hit, 2, 0
1132, 8, T_Sinc, T_Sinc_DGLG, 897.1, hit, 1, 2
1133, 8, T_Sinc, T_Sinc_DGLG, 508.6, hit, 1, 0
1134, 8, T_Sinc, T_Sinc_URRR, 460.1, hit, 2, 0
1135, 8, T_Scon, T_Scon_UGLG, 563.5, hit, 1, 0
1136, 8, T_Sinc, T_Sinc_URRR, 462.9, hit, 2, 0
1137, 8, T_Scon, T_Scon_DRRR, 498.4, hit, 2, 0
1138, 8, T_Scon, T_Scon_DRRR, 477.7, hit, 2, 0
1139, 8, T_Sinc, T_Sinc_URRR, 721.2, hit, 2, 0
1140, 8, T_Sinc, T_Sinc_DGLG, 588.7, hit, 1, 0
1141, 8, T_Sinc, T_Sinc_DGLG, 440.1, hit, 1, 0
1142, 8, T_Scon, T_Scon_DRRR, 539.5, hit, 2, 0
1143, 8, T_Scon, T_Scon_UGLG, 1011.0, hit, 1, 2
1144, 8, T_Scon, T_Scon_DRRR, 458.4, hit, 2, 0
1145, 8, T_Sinc, T_Sinc_URRR, 489.8, hit, 2, 0
1146, 8, T_Scon, T_Scon_DRRR, 349.3, hit, 2, 0
1147, 8, T_Sinc, T_Sinc_DGLG, 440.7, hit, 1, 0
1148, 8, T_Sinc, T_Sinc_DGLG, 328.2, hit, 1, 0
1149, 8, T_Sinc, T_Sinc_URRR, 443.6, hit, 2, 0
1150, 8, T_Sinc, T_Sinc_URRR, 487.0, hit, 2, 0
1151, 8, T_Scon, T_Scon_UGLG, 342.5, hit, 1, 0
1152, 8, T_Scon, T_Scon_DRRR, 425.9, hit, 2, 0
1153, 9, T_Sinc, T_Sinc_URRR, 551.4, hit, 2, 0
1154, 9, T_Scon, T_Scon_UGLG, 474.9, hit, 1, 0
1155, 9, T_Scon, T_Scon_DRRR, 410.2, hit, 2, 0
1156, 9, T_Sinc, T_Sinc_URRR, 365.7, hit, 2, 0
1157, 9, T_Scon, T_Scon_DRRR, 393.1, hit, 2, 0
1158, 9, T_Scon, T_Scon_UGLG, 600.5, hit, 1, 0
1159, 9, T_Sinc, T_Sinc_DGLG, 428.0, hit, 1, 0
1160, 9, T_Sinc, T_Sinc_DGLG, 471.4, hit, 1, 0
1161, 9, T_Sinc, T_Sinc_URRR, 438.9, hit, 2, 0
1162, 9, T_Sinc, T_Sinc_URRR, 286.2, hit, 2, 0
1163, 9, T_Scon, T_Scon_DRRR, 285.7, hit, 2, 0
1164, 9, T_Sinc, T_Sinc_URRR, 353.2, hit, 2, 0
1165, 9, T_Scon, T_Scon_UGLG, 472.6, hit, 1, 0
1166, 9, T_Sinc, T_Sinc_URRR, 424.0, hit, 2, 0
1167, 9, T_Scon, T_Scon_UGLG, 515.5, hit, 1, 0
1168, 9, T_Scon, T_Scon_DRRR, 510.9, hit, 2, 0
1169, 9, T_Scon, T_Scon_UGLG, 326.4, hit, 1, 0
1170, 9, T_Scon, T_Scon_DRRR, 369.8, hit, 2, 0
1171, 9, T_Scon, T_Scon_DRRR, 317.2, hit, 2, 0
1172, 9, T_Scon, T_Scon_UGLG, 488.6, hit, 1, 0
1173, 9, T_Sinc, T_Sinc_URRR, 448.0, hit, 2, 0
1174, 9, T_Sinc, T_Sinc_DGLG, 411.5, hit, 1, 0
1175, 9, T_Sinc, T_Sinc_DGLG, 351.0, hit, 1, 0
1176, 9, T_Scon, T_Scon_DRRR, 486.4, hit, 2, 0
1177, 9, T_Scon, T_Scon_DRRR, 417.8, hit, 2, 0
1178, 9, T_Scon, T_Scon_DRRR, 341.3, hit, 2, 0
1179, 9, T_Scon, T_Scon_DRRR, 332.7, hit, 2, 0
1180, 9, T_Sinc, T_Sinc_DGLG, 256.2, incorrect, 2, 1
1181, 9, T_Sinc, T_Sinc_DGLG, 315.5, hit, 1, 0
1182, 9, T_Sinc, T_Sinc_URRR, 503.0, hit, 2, 0
1183, 9, T_Sinc, T_Sinc_URRR, 498.5, hit, 2, 0
1184, 9, T_Sinc, T_Sinc_DGLG, 361.8, hit, 1, 0
1185, 9, T_Scon, T_Scon_DRRR, 501.3, hit, 2, 0
1186, 9, T_Sinc, T_Sinc_URRR, 532.8, hit, 2, 0
1187, 9, T_Scon, T_Scon_DRRR, 384.2, hit, 2, 0
1188, 9, T_Scon, T_Scon_UGLG, 527.6, hit, 1, 0
1189, 9, T_Sinc, T_Sinc_DGLG, 358.8, hit, 1, 0
1190, 9, T_Sinc, T_Sinc_URRR, 418.3, hit, 2, 0
1191, 9, T_Sinc, T_Sinc_URRR, 189.6, incorrect, 1, 1
1192, 9, T_Scon, T_Scon_UGLG, 361.1, hit, 1, 0
1193, 9, T_Scon, T_Scon_UGLG, 308.6, hit, 1, 0
1194, 9, T_Sinc, T_Sinc_URRR, 416.0, hit, 2, 0
1195, 9, T_Scon, T_Scon_DRRR, 459.4, hit, 2, 0
1196, 9, T_Scon, T_Scon_DRRR, 434.9, hit, 2, 0
1197, 9, T_Scon, T_Scon_DRRR, 354.4, hit, 2, 0
1198, 9, T_Sinc, T_Sinc_DGLG, 445.8, hit, 1, 0
1199, 9, T_Scon, T_Scon_DRRR, 481.1, hit, 2, 0
1200, 9, T_Sinc, T_Sinc_URRR, 400.6, hit, 2, 0
1201, 9, T_Sinc, T_Sinc_DGLG, 716.1, hit, 1, 0
1202, 9, T_Sinc, T_Sinc_URRR, 591.4, hit, 2, 0
1203, 9, T_Scon, T_Scon_UGLG, 578.9, hit, 1, 0
1204, 9, T_Sinc, T_Sinc_DGLG, 294.4, hit, 1, 0
1205, 9, T_Sinc, T_Sinc_URRR, 589.8, hit, 2, 0
1206, 9, T_Sinc, T_Sinc_DGLG, 529.3, hit, 1, 0
1207, 9, T_Scon, T_Scon_DRRR, 588.7, hit, 2, 0
1208, 9, T_Sinc, T_Sinc_DGLG, 476.1, hit, 1, 0
1209, 9, T_Sinc, T_Sinc_URRR, 571.6, hit, 2, 0
1210, 9, T_Sinc, T_Sinc_URRR, 410.9, hit, 2, 0
1211, 9, T_Scon, T_Scon_UGLG, 606.4, hit, 1, 0
1212, 9, T_Sinc, T_Sinc_URRR, 545.9, hit, 2, 0
1213, 9, T_Scon, T_Scon_DRRR, 397.3, hit, 2, 0
1214, 9, T_Scon, T_Scon_UGLG, 340.8, hit, 1, 0
1215, 9, T_Scon, T_Scon_UGLG, 352.2, hit, 1, 0
1216, 9, T_Scon, T_Scon_UGLG, 315.6, hit, 1, 0
1217, 9, T_Scon, T_Scon_UGLG, 295.1, hit, 1, 0
1218, 9, T_Scon, T_Scon_UGLG, 426.5, hit, 1, 0
1219, 9, T_Sinc, T_Sinc_URRR, 469.9, hit, 2, 0
1220, 9, T_Scon, T_Scon_DRRR, 409.4, hit, 2, 0
1221, 9, T_Sinc, T_Sinc_DGLG, 496.8, hit, 1, 0
1222, 9, T_Sinc, T_Sinc_DGLG, 456.2, hit, 1, 0
1223, 9, T_Scon, T_Scon_UGLG, 331.7, hit, 1, 0
1224, 9, T_Sinc, T_Sinc_DGLG, 427.1, hit, 1, 0
1225, 9, T_Sinc, T_Sinc_URRR, 474.3, hit, 2, 0
1226, 9, T_Sinc, T_Sinc_URRR, 357.7, hit, 2, 0
1227, 9, T_Sinc, T_Sinc_DGLG, 333.2, hit, 1, 0
1228, 9, T_Sinc, T_Sinc_DGLG, 284.5, hit, 1, 0
1229, 9, T_Sinc, T_Sinc_URRR, 432.0, hit, 2, 0
1230, 9, T_Sinc, T_Sinc_DGLG, 419.5, hit, 1, 0
1231, 9, T_Sinc, T_Sinc_URRR, 386.8, hit, 2, 0
1232, 9, T_Scon, T_Scon_UGLG, 398.3, hit, 1, 0
1233, 9, T_Sinc, T_Sinc_DGLG, 277.8, hit, 1, 0
1234, 9, T_Scon, T_Scon_DRRR, 473.2, hit, 2, 0
1235, 9, T_Sinc, T_Sinc_URRR, 348.6, hit, 2, 0
1236, 9, T_Scon, T_Scon_DRRR, 420.1, hit, 2, 0
1237, 9, T_Sinc, T_Sinc_URRR, 247.5, hit, 2, 0
1238, 9, T_Sinc, T_Sinc_DGLG, 495.0, hit, 1, 0
1239, 9, T_Scon, T_Scon_UGLG, 354.3, hit, 1, 0
1240, 9, T_Sinc, T_Sinc_DGLG, 337.8, hit, 1, 0
1241, 9, T_Scon, T_Scon_UGLG, 345.3, hit, 1, 0
1242, 9, T_Scon, T_Scon_UGLG, 460.6, hit, 1, 0
1243, 9, T_Scon, T_Scon_DRRR, 456.1, hit, 2, 0
1244, 9, T_Sinc, T_Sinc_DGLG, 595.6, hit, 1, 0
1245, 9, T_Sinc, T_Sinc_DGLG, 295.0, hit, 1, 0
1246, 9, T_Scon, T_Scon_UGLG, 326.4, hit, 1, 0
1247, 9, T_Sinc, T_Sinc_URRR, 397.9, hit, 2, 0
1248, 9, T_Scon, T_Scon_DRRR, 497.3, hit, 2, 0
1249, 9, T_Sinc, T_Sinc_URRR, 428.8, hit, 2, 0
1250, 9, T_Scon, T_Scon_UGLG, 488.2, hit, 1, 0
1251, 9, T_Sinc, T_Sinc_DGLG, 435.6, hit, 1, 0
1252, 9, T_Scon, T_Scon_UGLG, 303.1, hit, 1, 0
1253, 9, T_Sinc, T_Sinc_URRR, 450.6, hit, 2, 0
1254, 9, T_Scon, T_Scon_UGLG, 249.9, hit, 1, 0
1255, 9, T_Sinc, T_Sinc_URRR, 445.4, hit, 2, 0
1256, 9, T_Sinc, T_Sinc_DGLG, 576.8, hit, 1, 0
1257, 9, T_Scon, T_Scon_DRRR, 468.3, hit, 2, 0
1258, 9, T_Scon, T_Scon_UGLG, 279.7, hit, 1, 0
1259, 9, T_Scon, T_Scon_UGLG, 311.1, hit, 1, 0
1260, 9, T_Sinc, T_Sinc_DGLG, 378.6, hit, 1, 0
1261, 9, T_Scon, T_Scon_DRRR, 457.7, hit, 2, 0
1262, 9, T_Scon, T_Scon_DRRR, 349.1, hit, 2, 0
1263, 9, T_Scon, T_Scon_UGLG, 408.6, hit, 1, 0
1264, 9, T_Sinc, T_Sinc_URRR, 400.1, hit, 2, 0
1265, 9, T_Scon, T_Scon_DRRR, 451.5, hit, 2, 0
1266, 9, T_Sinc, T_Sinc_DGLG, 526.9, hit, 1, 0
1267, 9, T_Scon, T_Scon_DRRR, 342.4, hit, 2, 0
1268, 9, T_Scon, T_Scon_DRRR, 337.7, hit, 2, 0
1269, 9, T_Scon, T_Scon_DRRR, 325.2, hit, 2, 0
1270, 9, T_Sinc, T_Sinc_DGLG, 476.7, hit, 1, 0
1271, 9, T_Scon, T_Scon_UGLG, 440.1, hit, 1, 0
1272, 9, T_Sinc, T_Sinc_DGLG, 451.5, hit, 1, 0
1273, 9, T_Scon, T_Scon_UGLG, 350.9, hit, 1, 0
1274, 9, T_Sinc, T_Sinc_DGLG, 458.4, hit, 1, 0
1275, 9, T_Scon, T_Scon_DRRR, 601.9, hit, 2, 0
1276, 9, T_Scon, T_Scon_DRRR, 361.3, hit, 2, 0
1277, 9, T_Sinc, T_Sinc_URRR, 492.7, hit, 2, 0
1278, 9, T_Scon, T_Scon_DRRR, 328.2, hit, 2, 0
1279, 9, T_Sinc, T_Sinc_DGLG, 515.6, hit, 1, 0
1280, 9, T_Sinc, T_Sinc_URRR, 503.0, hit, 2, 0
1281, 9, T_Scon, T_Scon_UGLG, 362.5, hit, 1, 0
1282, 9, T_Scon, T_Scon_UGLG, 269.9, hit, 1, 0
1283, 9, T_Sinc, T_Sinc_URRR, 457.3, hit, 2, 0
1284, 9, T_Sinc, T_Sinc_URRR, 352.8, hit, 2, 0
1285, 9, T_Scon, T_Scon_UGLG, 616.2, hit, 1, 0
1286, 9, T_Sinc, T_Sinc_DGLG, 435.6, hit, 1, 0
1287, 9, T_Scon, T_Scon_UGLG, 327.1, hit, 1, 0
1288, 9, T_Scon, T_Scon_UGLG, 374.5, hit, 1, 0
1289, 9, T_Sinc, T_Sinc_DGLG, 382.0, hit, 1, 0
1290, 9, T_Sinc, T_Sinc_DGLG, 377.4, hit, 1, 0
1291, 9, T_Scon, T_Scon_DRRR, 508.8, hit, 2, 0
1292, 9, T_Scon, T_Scon_UGLG, 596.3, hit, 1, 0
1293, 9, T_Sinc, T_Sinc_URRR, 495.7, hit, 2, 0
1294, 9, T_Scon, T_Scon_DRRR, 415.1, hit, 2, 0
1295, 9, T_Scon, T_Scon_DRRR, 426.6, hit, 2, 0
1296, 9, T_Sinc, T_Sinc_DGLG, 510.0, hit, 1, 0
