trial_index, block, condition, full_condition_code, RT, response_type, response_key, error_outlier
1, 1, T_Scon, T_Scon_DRRR, 625.7, hit, 2, 0
2, 1, T_Sinc, T_Sinc_DGLG, 549.1, hit, 1, 0
3, 1, T_Sinc, T_Sinc_URRR, 464.6, hit, 2, 0
4, 1, T_Sinc, T_Sinc_DGLG, 644.0, hit, 1, 0
5, 1, T_Sinc, T_Sinc_DGLG, 435.4, hit, 1, 0
6, 1, T_Sinc, T_Sinc_DGLG, 326.9, hit, 1, 0
7, 1, T_Scon, T_Scon_UGLG, 434.4, hit, 1, 0
8, 1, T_Sinc, T_Sinc_DGLG, 517.7, hit, 1, 0
9, 1, T_Sinc, T_Sinc_URRR, 481.2, hit, 2, 0
10, 1, T_Scon, T_Scon_UGLG, 460.6, hit, 1, 0
11, 1, T_Sinc, T_Sinc_DGLG, 392.1, hit, 1, 0
12, 1, T_Scon, T_Scon_UGLG, 407.6, hit, 1, 0
13, 1, T_Sinc, T_Sinc_URRR, 554.9, hit, 2, 0
14, 1, T_Sinc, T_Sinc_DGLG, 498.4, hit, 1, 0
15, 1, T_Sinc, T_Sinc_DGLG, 301.9, hit, 1, 0
16, 1, T_Sinc, T_Sinc_URRR, 317.3, hit, 2, 0
17, 1, T_Sinc, T_Sinc_DGLG, 456.7, hit, 1, 0
18, 1, T_Scon, T_Scon_UGLG, 396.1, hit, 1, 0
19, 1, T_Scon, T_Scon_DRRR, 395.6, hit, 2, 0
20, 1, T_Scon, T_Scon_UGLG, 447.1, hit, 1, 0
21, 1, T_Sinc, T_Sinc_URRR, 638.4, hit, 2, 0
22, 1, T_Sinc, T_Sinc_URRR, 765.9, hit, 2, 0
23, 1, T_Sinc, T_Sinc_DGLG, 513.4, hit, 1, 0
24, 1, T_Scon, T_Scon_UGLG, 352.7, hit, 1, 0
25, 1, T_Scon, T_Scon_DRRR, 332.2, hit, 2, 0
26, 1, T_Sinc, T_Sinc_URRR, 355.7, hit, 2, 0
27, 1, T_Scon, T_Scon_DRRR, 591.1, hit, 2, 0
28, 1, T_Sinc, T_Sinc_URRR, 650.5, hit, 2, 0
29, 1, T_Scon, T_Scon_DRRR, 545.9, hit, 2, 0
30, 1, T_Scon, T_Scon_UGLG, 453.4, hit, 1, 0
31, 1, T_Sinc, T_Sinc_DGLG, 424.8, hit, 1, 0
32, 1, T_Sinc, T_Sinc_DGLG, 380.2, hit, 1, 0
33, 1, T_Sinc, T_Sinc_DGLG, 375.7, hit, 1, 0
34, 1, T_Sinc, T_Sinc_URRR, 355.1, hit, 2, 0
35, 1, T_Scon, T_Scon_DRRR, 310.5, hit, 2, 0
36, 1, T_Scon, T_Scon_UGLG, 310.0, hit, 1, 0
37, 1, T_Sinc, T_Sinc_DGLG, 425.1, hit, 1, 0
38, 1, T_Scon, T_Scon_DRRR, 440.6, hit, 2, 0
39, 1, T_Sinc, T_Sinc_URRR, 444.0, hit, 2, 0
40, 1, T_Scon, T_Scon_DRRR, 751.5, hit, 2, 0
41, 1, T_Scon, T_Scon_UGLG, 370.9, hit, 1, 0
42, 1, T_Scon, T_Scon_DRRR, 566.3, hit, 2, 0
43, 1, T_Scon, T_Scon_DRRR, 533.8, hit, 2, 0
44, 1, T_Scon, T_Scon_DRRR, 509.3, hit, 2, 0
45, 1, T_Scon, T_Scon_DRRR, 424.6, hit, 2, 0
46, 1, T_Scon, T_Scon_DRRR, 400.1, hit, 2, 0
47, 1, T_Sinc, T_Sinc_DGLG, 403.5, hit, 1, 0
48, 1, T_Scon, T_Scon_UGLG, 539.0, hit, 1, 0
49, 1, T_Scon, T_Scon_UGLG, 454.4, hit, 1, 0
50, 1, T_Sinc, T_Sinc_URRR, 517.8, hit, 2, 0
51, 1, T_Sinc, T_Sinc_DGLG, 753.3, hit, 1, 0
52, 1, T_Scon, T_Scon_UGLG, 528.7, hit, 1, 0
53, 1, T_Sinc, T_Sinc_URRR, 612.1, hit, 2, 0
54, 1, T_Scon, T_Scon_UGLG, 767.6, hit, 1, 0
55, 1, T_Scon, T_Scon_UGLG, 423.1, hit, 1, 0
56, 1, T_Scon, T_Scon_UGLG, 446.4, hit, 1, 0
57, 1, T_Sinc, T_Sinc_URRR, 493.9, hit, 2, 0
58, 1, T_Scon, T_Scon_UGLG, 625.4, hit, 1, 0
59, 1, T_Sinc, T_Sinc_DGLG, 524.9, hit, 1, 0
60, 1, T_Sinc, T_Sinc_DGLG, 496.2, hit, 1, 0
61, 1, T_Sinc, T_Sinc_URRR, 411.7, hit, 2, 0
62, 1, T_Sinc, T_Sinc_DGLG, 495.1, hit, 1, 0
63, 1, T_Scon, T_Scon_UGLG, 406.5, hit, 1, 0
64, 1, T_Sinc, T_Sinc_DGLG, 345.9, hit, 1, 0
65, 1, T_Scon, T_Scon_DRRR, 645.4, hit, 2, 0
66, 1, T_Scon, T_Scon_UGLG, 376.9, hit, 1, 0
67, 1, T_Sinc, T_Sinc_URRR, 416.2, hit, 2, 0
68, 1, T_Sinc, T_Sinc_DGLG, 563.7, hit, 1, 0
69, 1, T_Scon, T_Scon_DRRR, 623.2, hit, 2, 0
70, 1, T_Scon, T_Scon_UGLG, 714.5, hit, 1, 0
71, 1, T_Sinc, T_Sinc_URRR, 610.0, hit, 2, 0
72, 1, T_Scon, T_Scon_UGLG, 437.5, hit, 1, 0
73, 1, T_Sinc, T_Sinc_URRR, 452.6, incorrect, 1, 1
74, 1, T_Scon, T_Scon_DRRR, 596.0, hit, 2, 0
75, 1, T_Scon, T_Scon_UGLG, 335.5, hit, 1, 0
76, 1, T_Scon, T_Scon_UGLG, 371.0, hit, 1, 0
77, 1, T_Sinc, T_Sinc_URRR, 426.3, incorrect, 1, 1
78, 1, T_Sinc, T_Sinc_DGLG, 605.8, hit, 1, 0
79, 1, T_Scon, T_Scon_DRRR, 361.2, hit, 2, 0
80, 1, T_Scon, T_Scon_DRRR, 404.7, hit, 2, 0
81, 1, T_Sinc, T_Sinc_URRR, 412.1, hit, 2, 0
82, 1, T_Sinc, T_Sinc_URRR, 315.5, hit, 2, 0
83, 1, T_Sinc, T_Sinc_DGLG, 391.0, hit, 1, 0
84, 1, T_Scon, T_Scon_DRRR, 418.5, hit, 2, 0
85, 1, T_Sinc, T_Sinc_DGLG, 453.8, hit, 1, 0
86, 1, T_Scon, T_Scon_UGLG, 453.3, hit, 1, 0
87, 1, T_Scon, T_Scon_DRRR, 400.7, hit, 2, 0
88, 1, T_Sinc, T_Sinc_DGLG, 468.2, hit, 1, 0
89, 1, T_Sinc, T_Sinc_URRR, 455.6, hit, 2, 0
90, 1, T_Sinc, T_Sinc_URRR, 707.0, hit, 2, 0
91, 1, T_Sinc, T_Sinc_URRR, 766.5, hit, 2, 0
92, 1, T_Scon, T_Scon_UGLG, 469.9, hit, 1, 0
93, 1, T_Sinc, T_Sinc_URRR, 413.3, hit, 2, 0
94, 1, T_Sinc, T_Sinc_DGLG, 676.8, hit, 1, 0
95, 1, T_Scon, T_Scon_DRRR, 448.3, hit, 2, 0
96, 1, T_Scon, T_Scon_DRRR, 327.7, hit, 2, 0
97, 1, T_Sinc, T_Sinc_URRR, 371.1, incorrect, 1, 1
98, 1, T_Scon, T_Scon_DRRR, 494.6, hit, 2, 0
99, 1, T_Sinc, T_Sinc_DGLG, 394.0, hit, 1, 0
100, 1, T_Scon, T_Scon_UGLG, 613.5, hit, 1, 0
101, 1, T_Sinc, T_Sinc_DGLG, 456.8, hit, 1, 0
102, 1, T_Scon, T_Scon_DRRR, 444.3, hit, 2, 0
103, 1, T_Scon, T_Scon_UGLG, 447.8, hit, 1, 0
104, 1, T_Sinc, T_Sinc_DGLG, 439.1, hit, 1, 0
105, 1, T_Scon, T_Scon_DRRR, 458.6, hit, 2, 0
106, 1, T_Scon, T_Scon_UGLG, 514.1, hit, 1, 0
107, 1, T_Scon, T_Scon_DRRR, 585.5, incorrect, 1, 1
108, 1, T_Scon, T_Scon_DRRR, 452.9, hit, 2, 0
109, 1, T_Sinc, T_Sinc_URRR, 460.1, incorrect, 1, 1
110, 1, T_Scon, T_Scon_UGLG, 443.5, hit, 1, 0
111, 1, T_Scon, T_Scon_UGLG, 534.9, hit, 1, 0
112, 1, T_Scon, T_Scon_DRRR, 422.4, hit, 2, 0
113, 1, T_Scon, T_Scon_DRRR, 441.9, hit, 2, 0
114, 1, T_Scon, T_Scon_UGLG, 405.3, hit, 1, 0
115, 1, T_Scon, T_Scon_UGLG, 368.7, hit, 1, 0
116, 1, T_Sinc, T_Sinc_DGLG, 540.2, hit, 1, 0
117, 1, T_Sinc, T_Sinc_DGLG, 567.6, hit, 1, 0
118, 1, T_Scon, T_Scon_UGLG, 515.0, hit, 1, 0
119, 1, T_Scon, T_Scon_DRRR, 470.4, hit, 2, 0
120, 1, T_Sinc, T_Sinc_URRR, 553.9, hit, 2, 0
121, 1, T_Sinc, T_Sinc_DGLG, 533.3, hit, 1, 0
122, 1, T_Sinc, T_Sinc_DGLG, 352.8, hit, 1, 0
123, 1, T_Sinc, T_Sinc_URRR, 572.2, hit, 2, 0
124, 1, T_Scon, T_Scon_DRRR, 819.7, hit, 2, 2
125, 1, T_Scon, T_Scon_DRRR, 439.0, hit, 2, 0
126, 1, T_Scon, T_Scon_DRRR, 582.5, hit, 2, 0
127, 1, T_Sinc, T_Sinc_URRR, 529.9, hit, 2, 0
128, 1, T_Sinc, T_Sinc_URRR, 441.4, hit, 2, 0
129, 1, T_Scon, T_Scon_UGLG, 520.8, hit, 1, 0
130, 1, T_Sinc, T_Sinc_URRR, 548.3, hit, 2, 0
131, 1, T_Sinc, T_Sinc_URRR, 359.7, hit, 2, 0
132, 1, T_Sinc, T_Sinc_URRR, 323.1, hit, 2, 0
133, 1, T_Sinc, T_Sinc_DGLG, 470.6, hit, 1, 0
134, 1, T_Scon, T_Scon_DRRR, 842.0, hit, 2, 2
135, 1, T_Sinc, T_Sinc_DGLG, 693.4, hit, 1, 0
136, 1, T_Sinc, T_Sinc_URRR, 896.9, hit, 2, 2
137, 1, T_Scon, T_Scon_UGLG, 804.3, hit, 1, 2
138, 1, T_Sinc, T_Sinc_DGLG, 615.8, hit, 1, 0
139, 1, T_Sinc, T_Sinc_URRR, 411.1, hit, 2, 0
140, 1, T_Sinc, T_Sinc_URRR, 434.6, hit, 2, 0
141, 1, T_Scon, T_Scon_DRRR, 586.1, hit, 2, 0
142, 1, T_Scon, T_Scon_UGLG, 601.5, hit, 1, 0
143, 1, T_Scon, T_Scon_UGLG, 368.9, hit, 1, 0
144, 1, T_Scon, T_Scon_DRRR, 532.4, hit, 2, 0
145, 2, T_Sinc, T_Sinc_URRR, 557.7, hit, 2, 0
146, 2, T_Sinc, T_Sinc_DGLG, 617.1, hit, 1, 0
147, 2, T_Scon, T_Scon_UGLG, 364.5, incorrect, 2, 1
148, 2, T_Sinc, T_Sinc_DGLG, 500.0, hit, 1, 0
149, 2, T_Scon, T_Scon_UGLG, 383.4, hit, 1, 0
150, 2, T_Scon, T_Scon_UGLG, 326.8, hit, 1, 0
151, 2, T_Scon, T_Scon_DRRR, 474.3, hit, 2, 0
152, 2, T_Scon, T_Scon_DRRR, 553.7, hit, 2, 0
153, 2, T_Scon, T_Scon_UGLG, 561.1, hit, 1, 0
154, 2, T_Scon, T_Scon_UGLG, 372.6, hit, 1, 0
155, 2, T_Sinc, T_Sinc_DGLG, 472.0, hit, 1, 0
156, 2, T_Sinc, T_Sinc_URRR, 323.5, hit, 2, 0
157, 2, T_Scon, T_Scon_UGLG, 490.8, hit, 1, 0
158, 2, T_Sinc, T_Sinc_DGLG, 422.3, hit, 1, 0
159, 2, T_Sinc, T_Sinc_URRR, 441.8, hit, 2, 0
160, 2, T_Scon, T_Scon_UGLG, 477.1, hit, 1, 0
161, 2, T_Sinc, T_Sinc_DGLG, 504.6, hit, 1, 0
162, 2, T_Sinc, T_Sinc_DGLG, 380.1, hit, 1, 0
163, 2, T_Sinc, T_Sinc_URRR, 407.4, hit, 2, 0
164, 2, T_Scon, T_Scon_UGLG, 486.9, hit, 1, 0
165, 2, T_Sinc, T_Sinc_DGLG, 354.4, hit, 1, 0
166, 2, T_Sinc, T_Sinc_URRR, 601.8, hit, 2, 0
167, 2, T_Scon, T_Scon_UGLG, 765.3, hit, 1, 0
168, 2, T_Sinc, T_Sinc_URRR, 736.7, hit, 2, 0
169, 2, T_Sinc, T_Sinc_URRR, 392.1, hit, 2, 0
170, 2, T_Sinc, T_Sinc_URRR, 315.6, hit, 2, 0
171, 2, T_Sinc, T_Sinc_URRR, 318.9, hit, 2, 0
172, 2, T_Sinc, T_Sinc_URRR, 298.4, hit, 2, 0
173, 2, T_Scon, T_Scon_UGLG, 445.9, hit, 1, 0
174, 2, T_Scon, T_Scon_UGLG, 249.3, hit, 1, 0
175, 2, T_Scon, T_Scon_UGLG, 280.7, hit, 1, 0
176, 2, T_Sinc, T_Sinc_DGLG, 468.2, hit, 1, 0
177, 2, T_Sinc, T_Sinc_DGLG, 359.6, hit, 1, 0
178, 2, T_Scon, T_Scon_DRRR, 579.1, hit, 2, 0
179, 2, T_Scon, T_Scon_UGLG, 726.5, hit, 1, 0
180, 2, T_Scon, T_Scon_DRRR, 585.9, hit, 2, 0
181, 2, T_Sinc, T_Sinc_DGLG, 477.1, hit, 1, 0
182, 2, T_Sinc, T_Sinc_DGLG, 372.5, hit, 1, 0
183, 2, T_Scon, T_Scon_DRRR, 376.0, incorrect, 1, 1
184, 2, T_Sinc, T_Sinc_DGLG, 451.3, hit, 1, 0
185, 2, T_Scon, T_Scon_DRRR, 446.8, hit, 2, 0
186, 2, T_Scon, T_Scon_UGLG, 474.2, hit, 1, 0
187, 2, T_Sinc, T_Sinc_DGLG, 337.7, hit, 1, 0
188, 2, T_Sinc, T_Sinc_DGLG, 349.1, hit, 1, 0
189, 2, T_Scon, T_Scon_DRRR, 348.6, hit, 2, 0
190, 2, T_Scon, T_Scon_DRRR, 452.0, hit, 2, 0
191, 2, T_Scon, T_Scon_DRRR, 363.4, hit, 2, 0
192, 2, T_Sinc, T_Sinc_URRR, 606.8, hit, 2, 0
193, 2, T_Scon, T_Scon_DRRR, 430.3, hit, 2, 0
194, 2, T_Sinc, T_Sinc_URRR, 361.8, hit, 2, 0
195, 2, T_Scon, T_Scon_DRRR, 397.1, hit, 2, 0
196, 2, T_Sinc, T_Sinc_DGLG, 780.6, hit, 1, 0
197, 2, T_Sinc, T_Sinc_DGLG, 312.1, hit, 1, 0
198, 2, T_Sinc, T_Sinc_URRR, 515.5, hit, 2, 0
199, 2, T_Sinc, T_Sinc_URRR, 518.9, hit, 2, 0
200, 2, T_Scon, T_Scon_UGLG, 542.3, hit, 1, 0
201, 2, T_Sinc, T_Sinc_DGLG, 409.8, hit, 1, 0
202, 2, T_Scon, T_Scon_DRRR, 501.2, hit, 2, 0
203, 2, T_Sinc, T_Sinc_URRR, 1072.7, hit, 2, 2
204, 2, T_Scon, T_Scon_DRRR, 496.1, hit, 2, 0
205, 2, T_Sinc, T_Sinc_URRR, 363.6, hit, 2, 0
206, 2, T_Scon, T_Scon_DRRR, 410.9, hit, 2, 0
207, 2, T_Sinc, T_Sinc_DGLG, 390.4, hit, 1, 0
208, 2, T_Sinc, T_Sinc_DGLG, 529.9, incorrect, 2, 1
209, 2, T_Sinc, T_Sinc_URRR, 389.3, hit, 2, 0
210, 2, T_Scon, T_Scon_DRRR, 396.8, hit, 2, 0
211, 2, T_Sinc, T_Sinc_URRR, 372.2, hit, 2, 0
212, 2, T_Scon, T_Scon_UGLG, 415.6, hit, 1, 0
213, 2, T_Scon, T_Scon_DRRR, 479.1, hit, 2, 0
214, 2, T_Sinc, T_Sinc_DGLG, 538.5, hit, 1, 0
215, 2, T_Scon, T_Scon_DRRR, 493.9, hit, 2, 0
216, 2, T_Scon, T_Scon_DRRR, 329.4, hit, 2, 0
217, 2, T_Sinc, T_Sinc_URRR, 552.6, hit, 2, 0
218, 2, T_Scon, T_Scon_DRRR, 356.0, hit, 2, 0
219, 2, T_Scon, T_Scon_UGLG, 371.4, hit, 1, 0
220, 2, T_Scon, T_Scon_DRRR, 346.9, hit, 2, 0
221, 2, T_Scon, T_Scon_UGLG, 322.2, incorrect, 2, 1
222, 2, T_Scon, T_Scon_DRRR, 417.7, hit, 2, 0
223, 2, T_Sinc, T_Sinc_URRR, 413.2, hit, 2, 0
224, 2, T_Scon, T_Scon_DRRR, 424.6, hit, 2, 0
225, 2, T_Sinc, T_Sinc_URRR, 348.0, hit, 2, 0
226, 2, T_Sinc, T_Sinc_DGLG, 431.5, hit, 1, 0
227, 2, T_Scon, T_Scon_UGLG, 402.9, hit, 1, 0
228, 2, T_Sinc, T_Sinc_URRR, 422.3, hit, 2, 0
229, 2, T_Scon, T_Scon_DRRR, 461.8, hit, 2, 0
230, 2, T_Sinc, T_Sinc_URRR, 369.2, hit, 2, 0
231, 2, T_Scon, T_Scon_UGLG, 352.7, hit, 1, 0
232, 2, T_Scon, T_Scon_DRRR, 368.1, hit, 2, 0
233, 2, T_Sinc, T_Sinc_DGLG, 507.5, hit, 1, 0
234, 2, T_Sinc, T_Sinc_URRR, 495.0, hit, 2, 0
235, 2, T_Sinc, T_Sinc_DGLG, 354.4, hit, 1, 0
236, 2, T_Scon, T_Scon_UGLG, 477.8, hit, 1, 0
237, 2, T_Scon, T_Scon_UGLG, 409.3, hit, 1, 0
238, 2, T_Sinc, T_Sinc_DGLG, 340.7, hit, 1, 0
239, 2, T_Scon, T_Scon_DRRR, 496.2, hit, 2, 0
240, 2, T_Sinc, T_Sinc_DGLG, 571.5, hit, 1, 0
241, 2, T_Scon, T_Scon_UGLG, 331.0, hit, 1, 0
242, 2, T_Sinc, T_Sinc_DGLG, 406.5, hit, 1, 0
243, 2, T_Scon, T_Scon_DRRR, 629.9, hit, 2, 0
244, 2, T_Scon, T_Scon_UGLG, 449.3, hit, 1, 0
245, 2, T_Scon, T_Scon_DRRR, 480.8, hit, 2, 0
246, 2, T_Scon, T_Scon_UGLG, 584.2, hit, 1, 0
247, 2, T_Sinc, T_Sinc_DGLG, 695.6, hit, 1, 0
248, 2, T_Scon, T_Scon_UGLG, 379.1, hit, 1, 0
249, 2, T_Sinc, T_Sinc_DGLG, 806.5, hit, 1, 0
250, 2, T_Sinc, T_Sinc_DGLG, 454.0, hit, 1, 0
251, 2, T_Scon, T_Scon_UGLG, 441.4, hit, 1, 0
252, 2, T_Sinc, T_Sinc_URRR, 484.8, hit, 2, 0
253, 2, T_Sinc, T_Sinc_URRR, 420.1, hit, 2, 0
254, 2, T_Sinc, T_Sinc_URRR, 295.4, hit, 2, 0
255, 2, T_Sinc, T_Sinc_URRR, 330.8, hit, 2, 0
256, 2, T_Scon, T_Scon_UGLG, 454.3, hit, 1, 0
257, 2, T_Sinc, T_Sinc_DGLG, 353.8, incorrect, 2, 1
258, 2, T_Sinc, T_Sinc_DGLG, 469.3, hit, 1, 0
259, 2, T_Scon, T_Scon_UGLG, 328.6, hit, 1, 0
260, 2, T_Sinc, T_Sinc_DGLG, 324.1, hit, 1, 0
261, 2, T_Scon, T_Scon_UGLG, 407.5, hit, 1, 0
262, 2, T_Scon, T_Scon_DRRR, 443.0, hit, 2, 0
263, 2, T_Sinc, T_Sinc_DGLG, 522.4, hit, 1, 0
264, 2, T_Sinc, T_Sinc_URRR, 697.8, hit, 2, 0
265, 2, T_Sinc, T_Sinc_URRR, 301.3, hit, 2, 0
266, 2, T_Scon, T_Scon_UGLG, 384.8, hit, 1, 0
267, 2, T_Sinc, T_Sinc_URRR, 388.1, incorrect, 1, 1
268, 2, T_Scon, T_Scon_DRRR, 591.6, hit, 2, 0
269, 2, T_Sinc, T_Sinc_URRR, 491.1, hit, 2, 0
270, 2, T_Sinc, T_Sinc_URRR, 438.4, hit, 2, 0
271, 2, T_Sinc, T_Sinc_DGLG, 401.9, hit, 1, 0
272, 2, T_Scon, T_Scon_DRRR, 721.3, hit, 2, 0
273, 2, T_Scon, T_Scon_DRRR, 512.8, hit, 2, 0
274, 2, T_Sinc, T_Sinc_URRR, 660.2, hit, 2, 0
275, 2, T_Sinc, T_Sinc_DGLG, 639.6, hit, 1, 0
276, 2, T_Scon, T_Scon_DRRR, 599.1, hit, 2, 0
277, 2, T_Scon, T_Scon_DRRR, 614.5, hit, 2, 0
278, 2, T_Scon, T_Scon_UGLG, 685.9, hit, 1, 0
279, 2, T_Scon, T_Scon_UGLG, 361.4, hit, 1, 0
280, 2, T_Scon, T_Scon_UGLG, 336.8, hit, 1, 0
281, 2, T_Scon, T_Scon_DRRR, 500.2, hit, 2, 0
282, 2, T_Scon, T_Scon_DRRR, 491.7, hit, 2, 0
283, 2, T_Scon, T_Scon_DRRR, 591.2, hit, 2, 0
284, 2, T_Sinc, T_Sinc_URRR, 558.5, hit, 2, 0
285, 2, T_Scon, T_Scon_UGLG, 562.0, hit, 1, 0
286, 2, T_Scon, T_Scon_UGLG, 413.4, hit, 1, 0
287, 2, T_Sinc, T_Sinc_DGLG, 636.9, hit, 1, 0
288, 2, T_Sinc, T_Sinc_URRR, 472.3, hit, 2, 0
289, 3, T_Scon, T_Scon_UGLG, 540.0, hit, 1, 0
290, 3, T_Scon, T_Scon_DRRR, 383.4, hit, 2, 0
291, 3, T_Scon, T_Scon_UGLG, 378.8, hit, 1, 0
292, 3, T_Scon, T_Scon_DRRR, 402.2, hit, 2, 0
293, 3, T_Scon, T_Scon_DRRR, 405.7, hit, 2, 0
294, 3, T_Scon, T_Scon_DRRR, 333.2, hit, 2, 0
295, 3, T_Scon, T_Scon_DRRR, 404.5, hit, 2, 0
296, 3, T_Scon, T_Scon_UGLG, 460.0, hit, 1, 0
297, 3, T_Scon, T_Scon_DRRR, 351.5, hit, 2, 0
298, 3, T_Sinc, T_Sinc_DGLG, 614.9, hit, 1, 0
299, 3, T_Sinc, T_Sinc_DGLG, 334.3, hit, 1, 0
300, 3, T_Sinc, T_Sinc_URRR, 361.8, hit, 2, 0
301, 3, T_Scon, T_Scon_UGLG, 773.2, hit, 1, 0
302, 3, T_Sinc, T_Sinc_URRR, 712.6, hit, 2, 0
303, 3, T_Scon, T_Scon_DRRR, 692.0, incorrect, 1, 1
304, 3, T_Sinc, T_Sinc_URRR, 643.5, hit, 2, 0
305, 3, T_Sinc, T_Sinc_URRR, 510.9, hit, 2, 0
306, 3, T_Scon, T_Scon_UGLG, 758.3, hit, 1, 0
307, 3, T_Scon, T_Scon_DRRR, 545.8, hit, 2, 0
308, 3, T_Sinc, T_Sinc_URRR, 349.3, hit, 2, 0
309, 3, T_Sinc, T_Sinc_DGLG, 356.6, hit, 1, 0
310, 3, T_Scon, T_Scon_UGLG, 268.1, hit, 1, 0
311, 3, T_Sinc, T_Sinc_DGLG, 283.6, hit, 1, 0
312, 3, T_Scon, T_Scon_DRRR, 638.9, hit, 2, 0
313, 3, T_Sinc, T_Sinc_DGLG, 386.4, hit, 1, 0
314, 3, T_Sinc, T_Sinc_URRR, 397.9, hit, 2, 0
315, 3, T_Sinc, T_Sinc_URRR, 385.3, hit, 2, 0
316, 3, T_Sinc, T_Sinc_DGLG, 360.7, hit, 1, 0
317, 3, T_Sinc, T_Sinc_DGLG, 376.1, hit, 1, 0
318, 3, T_Sinc, T_Sinc_DGLG, 283.6, hit, 1, 0
319, 3, T_Sinc, T_Sinc_URRR, 331.1, hit, 2, 0
320, 3, T_Scon, T_Scon_UGLG, 350.6, hit, 1, 0
321, 3, T_Scon, T_Scon_UGLG, 281.9, hit, 1, 0
322, 3, T_Scon, T_Scon_UGLG, 281.4, hit, 1, 0
323, 3, T_Sinc, T_Sinc_URRR, 396.8, hit, 2, 0
324, 3, T_Sinc, T_Sinc_URRR, 292.2, hit, 2, 0
325, 3, T_Scon, T_Scon_DRRR, 459.4, hit, 2, 0
326, 3, T_Sinc, T_Sinc_URRR, 358.9, hit, 2, 0
327, 3, T_Sinc, T_Sinc_URRR, 314.2, hit, 2, 0
328, 3, T_Sinc, T_Sinc_DGLG, 373.7, hit, 1, 0
329, 3, T_Scon, T_Scon_UGLG, 385.2, hit, 1, 0
330, 3, T_Sinc, T_Sinc_DGLG, 336.6, hit, 1, 0
331, 3, T_Scon, T_Scon_UGLG, 444.0, hit, 1, 0
332, 3, T_Scon, T_Scon_DRRR, 391.5, hit, 2, 0
333, 3, T_Sinc, T_Sinc_URRR, 498.9, hit, 2, 0
334, 3, T_Sinc, T_Sinc_URRR, 346.4, hit, 2, 0
335, 3, T_Scon, T_Scon_DRRR, 389.7, hit, 2, 0
336, 3, T_Sinc, T_Sinc_URRR, 321.2, hit, 2, 0
337, 3, T_Scon, T_Scon_UGLG, 372.7, hit, 1, 0
338, 3, T_Scon, T_Scon_UGLG, 300.1, hit, 1, 0
339, 3, T_Sinc, T_Sinc_URRR, 375.5, hit, 2, 0
340, 3, T_Scon, T_Scon_DRRR, 363.0, hit, 2, 0
341, 3, T_Sinc, T_Sinc_URRR, 338.4, hit, 2, 0
342, 3, T_Scon, T_Scon_UGLG, 353.9, hit, 1, 0
343, 3, T_Sinc, T_Sinc_URRR, 385.3, hit, 2, 0
344, 3, T_Sinc, T_Sinc_URRR, 372.7, hit, 2, 0
345, 3, T_Sinc, T_Sinc_URRR, 316.2, hit, 2, 0
346, 3, T_Scon, T_Scon_DRRR, 411.5, hit, 2, 0
347, 3, T_Scon, T_Scon_UGLG, 567.0, hit, 1, 0
348, 3, T_Scon, T_Scon_DRRR, 418.5, hit, 2, 0
349, 3, T_Scon, T_Scon_DRRR, 357.9, hit, 2, 0
350, 3, T_Sinc, T_Sinc_DGLG, 401.3, hit, 1, 0
351, 3, T_Scon, T_Scon_UGLG, 372.8, incorrect, 2, 1
352, 3, T_Sinc, T_Sinc_DGLG, 392.2, hit, 1, 0
353, 3, T_Scon, T_Scon_DRRR, 355.7, hit, 2, 0
354, 3, T_Scon, T_Scon_UGLG, 439.2, hit, 1, 0
355, 3, T_Sinc, T_Sinc_DGLG, 442.5, hit, 1, 0
356, 3, T_Scon, T_Scon_UGLG, 382.0, hit, 1, 0
357, 3, T_Sinc, T_Sinc_URRR, 429.4, hit, 2, 0
358, 3, T_Scon, T_Scon_UGLG, 464.8, hit, 1, 0
359, 3, T_Sinc, T_Sinc_DGLG, 332.3, hit, 1, 0
360, 3, T_Sinc, T_Sinc_DGLG, 319.7, hit, 1, 0
361, 3, T_Scon, T_Scon_DRRR, 455.0, hit, 2, 0
362, 3, T_Sinc, T_Sinc_URRR, 714.3, hit, 2, 0
363, 3, T_Sinc, T_Sinc_DGLG, 445.8, hit, 1, 0
364, 3, T_Scon, T_Scon_UGLG, 401.2, hit, 1, 0
365, 3, T_Sinc, T_Sinc_DGLG, 372.6, hit, 1, 0
366, 3, T_Sinc, T_Sinc_URRR, 428.1, hit, 2, 0
367, 3, T_Sinc, T_Sinc_DGLG, 519.5, hit, 1, 0
368, 3, T_Sinc, T_Sinc_DGLG, 339.0, hit, 1, 0
369, 3, T_Scon, T_Scon_DRRR, 414.4, hit, 2, 0
370, 3, T_Sinc, T_Sinc_URRR, 457.8, hit, 2, 0
371, 3, T_Sinc, T_Sinc_DGLG, 465.3, hit, 1, 0
372, 3, T_Scon, T_Scon_DRRR, 572.7, hit, 2, 0
373, 3, T_Sinc, T_Sinc_DGLG, 360.1, hit, 1, 0
374, 3, T_Sinc, T_Sinc_URRR, 603.6, hit, 2, 0
375, 3, T_Sinc, T_Sinc_URRR, 599.0, hit, 2, 0
376, 3, T_Sinc, T_Sinc_DGLG, 350.4, hit, 1, 0
377, 3, T_Scon, T_Scon_DRRR, 585.9, hit, 2, 0
378, 3, T_Scon, T_Scon_UGLG, 433.3, hit, 1, 0
379, 3, T_Scon, T_Scon_DRRR, 408.8, hit, 2, 0
380, 3, T_Scon, T_Scon_UGLG, 328.2, hit, 1, 0
381, 3, T_Sinc, T_Sinc_DGLG, 735.6, hit, 1, 0
382, 3, T_Sinc, T_Sinc_URRR, 643.1, hit, 2, 0
383, 3, T_Sinc, T_Sinc_DGLG, 618.5, hit, 1, 0
384, 3, T_Sinc, T_Sinc_DGLG, 393.9, hit, 1, 0
385, 3, T_Scon, T_Scon_DRRR, 605.4, hit, 2, 0
386, 3, T_Scon, T_Scon_DRRR, 392.8, hit, 2, 0
387, 3, T_Sinc, T_Sinc_URRR, 420.2, hit, 2, 0
388, 3, T_Scon, T_Scon_DRRR, 539.7, hit, 2, 0
389, 3, T_Sinc, T_Sinc_DGLG, 455.2, hit, 1, 0
390, 3, T_Scon, T_Scon_UGLG, 466.5, hit, 1, 0
391, 3, T_Sinc, T_Sinc_DGLG, 446.0, hit, 1, 0
392, 3, T_Scon, T_Scon_DRRR, 561.4, hit, 2, 0
393, 3, T_Sinc, T_Sinc_DGLG, 828.9, hit, 1, 2
394, 3, T_Scon, T_Scon_DRRR, 848.3, hit, 2, 2
395, 3, T_Sinc, T_Sinc_DGLG, 527.7, hit, 1, 0
396, 3, T_Scon, T_Scon_DRRR, 359.2, hit, 2, 0
397, 3, T_Sinc, T_Sinc_DGLG, 502.3, hit, 1, 0
398, 3, T_Scon, T_Scon_UGLG, 385.8, hit, 1, 0
399, 3, T_Sinc, T_Sinc_URRR, 389.2, hit, 2, 0
400, 3, T_Scon, T_Scon_DRRR, 376.6, hit, 2, 0
401, 3, T_Scon, T_Scon_DRRR, 524.1, hit, 2, 0
402, 3, T_Sinc, T_Sinc_URRR, 387.5, hit, 2, 0
403, 3, T_Sinc, T_Sinc_URRR, 503.0, hit, 2, 0
404, 3, T_Sinc, T_Sinc_URRR, 426.3, hit, 2, 0
405, 3, T_Scon, T_Scon_DRRR, 665.8, hit, 2, 0
406, 3, T_Scon, T_Scon_UGLG, 605.3, hit, 1, 0
407, 3, T_Sinc, T_Sinc_URRR, 524.7, incorrect, 1, 1
408, 3, T_Sinc, T_Sinc_DGLG, 564.1, hit, 1, 0
409, 3, T_Sinc, T_Sinc_DGLG, 419.6, hit, 1, 0
410, 3, T_Scon, T_Scon_DRRR, 419.0, hit, 2, 0
411, 3, T_Sinc, T_Sinc_URRR, 358.5, hit, 2, 0
412, 3, T_Scon, T_Scon_DRRR, 525.9, hit, 2, 0
413, 3, T_Sinc, T_Sinc_URRR, 381.3, hit, 2, 0
414, 3, T_Scon, T_Scon_UGLG, 520.8, hit, 1, 0
415, 3, T_Scon, T_Scon_UGLG, 292.2, hit, 1, 0
416, 3, T_Scon, T_Scon_UGLG, 375.6, hit, 1, 0
417, 3, T_Sinc, T_Sinc_DGLG, 339.1, hit, 1, 0
418, 3, T_Scon, T_Scon_UGLG, 282.5, hit, 1, 0
419, 3, T_Scon, T_Scon_DRRR, 485.9, hit, 2, 0
420, 3, T_Scon, T_Scon_UGLG, 337.4, hit, 1, 0
421, 3, T_Scon, T_Scon_UGLG, 428.8, hit, 1, 0
422, 3, T_Sinc, T_Sinc_DGLG, 336.2, hit, 1, 0
423, 3, T_Scon, T_Scon_DRRR, 587.7, hit, 2, 0
424, 3, T_Scon, T_Scon_UGLG, 387.1, hit, 1, 0
425, 3, T_Scon, T_Scon_UGLG, 318.6, hit, 1, 0
426, 3, T_Scon, T_Scon_UGLG, 433.9, hit, 1, 0
427, 3, T_Scon, T_Scon_UGLG, 405.4, hit, 1, 0
428, 3, T_Sinc, T_Sinc_DGLG, 392.9, hit, 1, 0
429, 3, T_Scon, T_Scon_DRRR, 356.2, hit, 2, 0
430, 3, T_Sinc, T_Sinc_DGLG, 487.7, hit, 1, 0
431, 3, T_Scon, T_Scon_UGLG, 455.2, hit, 1, 0
432, 3, T_Sinc, T_Sinc_URRR, 346.6, hit, 2, 0
433, 4, T_Sinc, T_Sinc_DGLG, 518.2, hit, 1, 0
434, 4, T_Sinc, T_Sinc_URRR, 393.7, hit, 2, 0
435, 4, T_Sinc, T_Sinc_DGLG, 541.1, hit, 1, 0
436, 4, T_Scon, T_Scon_DRRR, 428.6, hit, 2, 0
437, 4, T_Scon, T_Scon_DRRR, 447.9, hit, 2, 0
438, 4, T_Sinc, T_Sinc_DGLG, 411.4, hit, 1, 0
439, 4, T_Sinc, T_Sinc_URRR, 458.9, hit, 2, 0
440, 4, T_Scon, T_Scon_DRRR, 630.2, hit, 2, 0
441, 4, T_Sinc, T_Sinc_DGLG, 433.7, hit, 1, 0
442, 4, T_Scon, T_Scon_DRRR, 485.1, hit, 2, 0
443, 4, T_Scon, T_Scon_UGLG, 600.6, hit, 1, 0
444, 4, T_Scon, T_Scon_UGLG, 388.0, hit, 1, 0
445, 4, T_Scon, T_Scon_DRRR, 467.4, hit, 2, 0
446, 4, T_Scon, T_Scon_UGLG, 358.9, hit, 1, 0
447, 4, T_Sinc, T_Sinc_URRR, 378.3, incorrect, 1, 1
448, 4, T_Scon, T_Scon_DRRR, 597.7, hit, 2, 0
449, 4, T_Sinc, T_Sinc_URRR, 497.2, hit, 2, 0
450, 4, T_Sinc, T_Sinc_URRR, 576.7, hit, 2, 0
451, 4, T_Scon, T_Scon_UGLG, 572.0, hit, 1, 0
452, 4, T_Sinc, T_Sinc_URRR, 583.5, hit, 2, 0
453, 4, T_Scon, T_Scon_UGLG, 534.9, hit, 1, 0
454, 4, T_Scon, T_Scon_UGLG, 442.4, hit, 1, 0
455, 4, T_Sinc, T_Sinc_DGLG, 565.8, hit, 1, 0
456, 4, T_Sinc, T_Sinc_DGLG, 345.2, hit, 1, 0
457, 4, T_Sinc, T_Sinc_DGLG, 436.7, hit, 1, 0
458, 4, T_Scon, T_Scon_UGLG, 416.1, hit, 1, 0
459, 4, T_Scon, T_Scon_UGLG, 323.5, hit, 1, 0
460, 4, T_Sinc, T_Sinc_DGLG, 391.0, hit, 1, 0
461, 4, T_Scon, T_Scon_UGLG, 402.5, hit, 1, 0
462, 4, T_Sinc, T_Sinc_URRR, 405.8, hit, 2, 0
463, 4, T_Scon, T_Scon_DRRR, 457.3, hit, 2, 0
464, 4, T_Scon, T_Scon_UGLG, 352.8, hit, 1, 0
465, 4, T_Sinc, T_Sinc_URRR, 788.1, hit, 2, 0
466, 4, T_Scon, T_Scon_DRRR, 535.6, hit, 2, 0
467, 4, T_Scon, T_Scon_UGLG, 507.0, hit, 1, 0
468, 4, T_Sinc, T_Sinc_URRR, 546.5, hit, 2, 0
469, 4, T_Scon, T_Scon_UGLG, 465.7, hit, 1, 0
470, 4, T_Sinc, T_Sinc_DGLG, 401.1, hit, 1, 0
471, 4, T_Scon, T_Scon_UGLG, 280.6, hit, 1, 0
472, 4, T_Sinc, T_Sinc_DGLG, 307.9, hit, 1, 0
473, 4, T_Sinc, T_Sinc_DGLG, 383.4, hit, 1, 0
474, 4, T_Scon, T_Scon_DRRR, 398.9, hit, 2, 0
475, 4, T_Sinc, T_Sinc_DGLG, 318.3, hit, 1, 0
476, 4, T_Sinc, T_Sinc_DGLG, 333.7, hit, 1, 0
477, 4, T_Sinc, T_Sinc_DGLG, 281.1, hit, 1, 0
478, 4, T_Scon, T_Scon_UGLG, 348.6, hit, 1, 0
479, 4, T_Scon, T_Scon_DRRR, 352.0, hit, 2, 0
480, 4, T_Scon, T_Scon_DRRR, 615.5, hit, 2, 0
481, 4, T_Scon, T_Scon_DRRR, 474.9, hit, 2, 0
482, 4, T_Scon, T_Scon_UGLG, 342.4, hit, 1, 0
483, 4, T_Sinc, T_Sinc_URRR, 449.8, hit, 2, 0
484, 4, T_Sinc, T_Sinc_DGLG, 517.1, hit, 1, 0
485, 4, T_Scon, T_Scon_UGLG, 392.6, hit, 1, 0
486, 4, T_Sinc, T_Sinc_URRR, 516.2, hit, 2, 0
487, 4, T_Sinc, T_Sinc_URRR, 547.5, incorrect, 1, 1
488, 4, T_Sinc, T_Sinc_DGLG, 430.9, hit, 1, 0
489, 4, T_Sinc, T_Sinc_URRR, 394.4, hit, 2, 0
490, 4, T_Scon, T_Scon_DRRR, 573.8, hit, 2, 0
491, 4, T_Sinc, T_Sinc_URRR, 497.2, hit, 2, 0
492, 4, T_Sinc, T_Sinc_DGLG, 316.7, hit, 1, 0
493, 4, T_Sinc, T_Sinc_URRR, 536.1, hit, 2, 0
494, 4, T_Sinc, T_Sinc_DGLG, 659.6, hit, 1, 0
495, 4, T_Sinc, T_Sinc_DGLG, 279.0, hit, 1, 0
496, 4, T_Scon, T_Scon_DRRR, 626.4, hit, 2, 0
497, 4, T_Sinc, T_Sinc_DGLG, 585.9, hit, 1, 0
498, 4, T_Scon, T_Scon_UGLG, 365.4, hit, 1, 0
499, 4, T_Sinc, T_Sinc_URRR, 504.7, hit, 2, 0
500, 4, T_Scon, T_Scon_DRRR, 376.2, hit, 2, 0
501, 4, T_Scon, T_Scon_UGLG, 335.7, hit, 1, 0
502, 4, T_Sinc, T_Sinc_DGLG, 451.0, hit, 1, 0
503, 4, T_Scon, T_Scon_DRRR, 502.5, hit, 2, 0
504, 4, T_Sinc, T_Sinc_DGLG, 410.0, hit, 1, 0
505, 4, T_Scon, T_Scon_DRRR, 473.2, hit, 2, 0
506, 4, T_Scon, T_Scon_UGLG, 516.5, hit, 1, 0
507, 4, T_Scon, T_Scon_UGLG, 300.0, hit, 1, 0
508, 4, T_Scon, T_Scon_DRRR, 499.5, hit, 2, 0
509, 4, T_Scon, T_Scon_DRRR, 402.8, hit, 2, 0
510, 4, T_Scon, T_Scon_DRRR, 462.3, hit, 2, 0
511, 4, T_Scon, T_Scon_DRRR, 341.8, hit, 2, 0
512, 4, T_Sinc, T_Sinc_URRR, 409.2, hit, 2, 0
513, 4, T_Scon, T_Scon_DRRR, 476.6, hit, 2, 0
514, 4, T_Sinc, T_Sinc_DGLG, 368.0, hit, 1, 0
515, 4, T_Scon, T_Scon_UGLG, 271.5, hit, 1, 0
516, 4, T_Sinc, T_Sinc_URRR, 387.0, hit, 2, 0
517, 4, T_Scon, T_Scon_DRRR, 350.3, hit, 2, 0
518, 4, T_Scon, T_Scon_UGLG, 365.8, hit, 1, 0
519, 4, T_Scon, T_Scon_DRRR, 289.3, incorrect, 1, 1
520, 4, T_Scon, T_Scon_UGLG, 348.7, hit, 1, 0
521, 4, T_Scon, T_Scon_DRRR, 456.1, hit, 2, 0
522, 4, T_Scon, T_Scon_UGLG, 307.6, hit, 1, 0
523, 4, T_Scon, T_Scon_UGLG, 374.9, hit, 1, 0
524, 4, T_Scon, T_Scon_UGLG, 322.4, hit, 1, 0
525, 4, T_Scon, T_Scon_UGLG, 301.9, hit, 1, 0
526, 4, T_Scon, T_Scon_UGLG, 345.3, hit, 1, 0
527, 4, T_Sinc, T_Sinc_URRR, 572.8, hit, 2, 0
528, 4, T_Scon, T_Scon_DRRR, 360.1, hit, 2, 0
529, 4, T_Scon, T_Scon_UGLG, 419.6, hit, 1, 0
530, 4, T_Sinc, T_Sinc_URRR, 359.1, hit, 2, 0
531, 4, T_Scon, T_Scon_UGLG, 590.5, hit, 1, 0
532, 4, T_Sinc, T_Sinc_DGLG, 309.9, hit, 1, 0
533, 4, T_Sinc, T_Sinc_URRR, 345.4, hit, 2, 0
534, 4, T_Sinc, T_Sinc_URRR, 308.8, hit, 2, 0
535, 4, T_Sinc, T_Sinc_URRR, 316.3, hit, 2, 0
536, 4, T_Scon, T_Scon_DRRR, 343.6, hit, 2, 0
537, 4, T_Sinc, T_Sinc_DGLG, 351.1, hit, 1, 0
538, 4, T_Scon, T_Scon_DRRR, 390.6, incorrect, 1, 1
539, 4, T_Scon, T_Scon_UGLG, 390.0, hit, 1, 0
540, 4, T_Scon, T_Scon_UGLG, 361.4, hit, 1, 0
541, 4, T_Sinc, T_Sinc_URRR, 424.7, hit, 2, 0
542, 4, T_Scon, T_Scon_DRRR, 372.0, hit, 2, 0
543, 4, T_Sinc, T_Sinc_DGLG, 331.4, hit, 1, 0
544, 4, T_Sinc, T_Sinc_URRR, 394.9, hit, 2, 0
545, 4, T_Sinc, T_Sinc_URRR, 310.4, hit, 2, 0
546, 4, T_Sinc, T_Sinc_URRR, 321.8, hit, 2, 0
547, 4, T_Sinc, T_Sinc_DGLG, 421.2, hit, 1, 0
548, 4, T_Sinc, T_Sinc_URRR, 568.7, hit, 2, 0
549, 4, T_Scon, T_Scon_DRRR, 356.1, hit, 2, 0
550, 4, T_Scon, T_Scon_UGLG, 367.5, hit, 1, 0
551, 4, T_Sinc, T_Sinc_DGLG, 311.0, hit, 1, 0
552, 4, T_Sinc, T_Sinc_URRR, 342.4, hit, 2, 0
553, 4, T_Sinc, T_Sinc_URRR, 309.9, hit, 2, 0
554, 4, T_Sinc, T_Sinc_URRR, 605.2, hit, 2, 0
555, 4, T_Sinc, T_Sinc_DGLG, 384.7, hit, 1, 0
556, 4, T_Scon, T_Scon_DRRR, 360.2, hit, 2, 0
557, 4, T_Scon, T_Scon_DRRR, 343.5, hit, 2, 0
558, 4, T_Sinc, T_Sinc_URRR, 599.0, hit, 2, 0
559, 4, T_Sinc, T_Sinc_DGLG, 602.5, hit, 1, 0
560, 4, T_Scon, T_Scon_DRRR, 493.9, hit, 2, 0
561, 4, T_Scon, T_Scon_UGLG, 341.3, hit, 1, 0
562, 4, T_Sinc, T_Sinc_DGLG, 496.8, hit, 1, 0
563, 4, T_Scon, T_Scon_DRRR, 456.2, hit, 2, 0
564, 4, T_Sinc, T_Sinc_URRR, 347.6, hit, 2, 0
565, 4, T_Scon, T_Scon_DRRR, 335.1, hit, 2, 0
566, 4, T_Sinc, T_Sinc_DGLG, 618.5, hit, 1, 0
567, 4, T_Sinc, T_Sinc_URRR, 546.0, hit, 2, 0
568, 4, T_Sinc, T_Sinc_DGLG, 521.3, hit, 1, 0
569, 4, T_Scon, T_Scon_UGLG, 376.8, hit, 1, 0
570, 4, T_Scon, T_Scon_UGLG, 356.3, hit, 1, 0
571, 4, T_Sinc, T_Sinc_URRR, 419.8, hit, 2, 0
572, 4, T_Scon, T_Scon_DRRR, 591.2, hit, 2, 0
573, 4, T_Sinc, T_Sinc_DGLG, 454.6, hit, 1, 0
574, 4, T_Sinc, T_Sinc_DGLG, 342.0, hit, 1, 0
575, 4, T_Sinc, T_Sinc_URRR, 801.4, hit, 2, 0
576, 4, T_Sinc, T_Sinc_DGLG, 496.9, hit, 1, 0
577, 5, T_Sinc, T_Sinc_URRR, 593.1, hit, 2, 0
578, 5, T_Scon, T_Scon_DRRR, 384.6, hit, 2, 0
579, 5, T_Sinc, T_Sinc_URRR, 359.9, hit, 2, 0
580, 5, T_Scon, T_Scon_DRRR, 375.4, hit, 2, 0
581, 5, T_Scon, T_Scon_DRRR, 306.8, hit, 2, 0
582, 5, T_Scon, T_Scon_UGLG, 342.3, hit, 1, 0
583, 5, T_Sinc, T_Sinc_URRR, 365.7, incorrect, 1, 1
584, 5, T_Sinc, T_Sinc_DGLG, 609.2, hit, 1, 0
585, 5, T_Scon, T_Scon_UGLG, 372.6, hit, 1, 0
586, 5, T_Scon, T_Scon_DRRR, 372.0, hit, 2, 0
587, 5, T_Sinc, T_Sinc_URRR, 467.4, hit, 2, 0
588, 5, T_Scon, T_Scon_DRRR, 386.9, hit, 2, 0
589, 5, T_Scon, T_Scon_DRRR, 346.3, hit, 2, 0
590, 5, T_Sinc, T_Sinc_URRR, 645.8, hit, 2, 0
591, 5, T_Scon, T_Scon_UGLG, 349.2, hit, 1, 0
592, 5, T_Scon, T_Scon_DRRR, 368.6, hit, 2, 0
593, 5, T_Sinc, T_Sinc_URRR, 380.2, hit, 2, 0
594, 5, T_Sinc, T_Sinc_URRR, 335.5, hit, 2, 0
595, 5, T_Sinc, T_Sinc_URRR, 346.9, hit, 2, 0
596, 5, T_Sinc, T_Sinc_DGLG, 414.4, hit, 1, 0
597, 5, T_Scon, T_Scon_UGLG, 305.8, hit, 1, 0
598, 5, T_Scon, T_Scon_UGLG, 261.3, hit, 1, 0
599, 5, T_Sinc, T_Sinc_DGLG, 328.7, hit, 1, 0
600, 5, T_Scon, T_Scon_UGLG, 244.1, hit, 1, 0
601, 5, T_Scon, T_Scon_UGLG, 291.6, hit, 1, 0
602, 5, T_Scon, T_Scon_UGLG, 263.1, hit, 1, 0
603, 5, T_Sinc, T_Sinc_DGLG, 378.4, hit, 1, 0
604, 5, T_Sinc, T_Sinc_DGLG, 449.9, hit, 1, 0
605, 5, T_Sinc, T_Sinc_DGLG, 365.4, hit, 1, 0
606, 5, T_Scon, T_Scon_UGLG, 336.8, hit, 1, 0
607, 5, T_Scon, T_Scon_DRRR, 404.2, hit, 2, 0
608, 5, T_Scon, T_Scon_UGLG, 447.6, hit, 1, 0
609, 5, T_Sinc, T_Sinc_DGLG, 371.1, hit, 1, 0
610, 5, T_Scon, T_Scon_DRRR, 298.6, incorrect, 1, 1
611, 5, T_Scon, T_Scon_UGLG, 333.9, hit, 1, 0
612, 5, T_Sinc, T_Sinc_DGLG, 397.4, hit, 1, 0
613, 5, T_Scon, T_Scon_DRRR, 380.7, hit, 2, 0
614, 5, T_Scon, T_Scon_DRRR, 268.0, hit, 2, 0
615, 5, T_Sinc, T_Sinc_URRR, 311.4, hit, 2, 0
616, 5, T_Sinc, T_Sinc_DGLG, 354.9, hit, 1, 0
617, 5, T_Scon, T_Scon_UGLG, 306.4, hit, 1, 0
618, 5, T_Sinc, T_Sinc_DGLG, 325.7, hit, 1, 0
619, 5, T_Sinc, T_Sinc_URRR, 441.2, hit, 2, 0
620, 5, T_Scon, T_Scon_DRRR, 484.7, hit, 2, 0
621, 5, T_Sinc, T_Sinc_DGLG, 504.0, hit, 1, 0
622, 5, T_Sinc, T_Sinc_URRR, 531.5, hit, 2, 0
623, 5, T_Scon, T_Scon_DRRR, 531.0, hit, 2, 0
624, 5, T_Scon, T_Scon_UGLG, 482.4, hit, 1, 0
625, 5, T_Scon, T_Scon_UGLG, 457.8, hit, 1, 0
626, 5, T_Scon, T_Scon_UGLG, 465.2, hit, 1, 0
627, 5, T_Scon, T_Scon_DRRR, 460.7, hit, 2, 0
628, 5, T_Scon, T_Scon_DRRR, 416.2, hit, 2, 0
629, 5, T_Scon, T_Scon_UGLG, 555.5, hit, 1, 0
630, 5, T_Scon, T_Scon_UGLG, 395.0, hit, 1, 0
631, 5, T_Scon, T_Scon_UGLG, 286.5, hit, 1, 0
632, 5, T_Sinc, T_Sinc_DGLG, 441.8, hit, 1, 0
633, 5, T_Scon, T_Scon_UGLG, 221.3, hit, 1, 0
634, 5, T_Scon, T_Scon_DRRR, 432.8, hit, 2, 0
635, 5, T_Sinc, T_Sinc_URRR, 328.2, hit, 2, 0
636, 5, T_Sinc, T_Sinc_URRR, 479.6, hit, 2, 0
637, 5, T_Scon, T_Scon_UGLG, 595.1, hit, 1, 0
638, 5, T_Sinc, T_Sinc_DGLG, 678.5, hit, 1, 0
639, 5, T_Scon, T_Scon_UGLG, 345.9, hit, 1, 0
640, 5, T_Sinc, T_Sinc_URRR, 645.3, hit, 2, 0
641, 5, T_Sinc, T_Sinc_URRR, 436.8, hit, 2, 0
642, 5, T_Scon, T_Scon_DRRR, 552.3, hit, 2, 0
643, 5, T_Sinc, T_Sinc_URRR, 463.6, hit, 2, 0
644, 5, T_Scon, T_Scon_UGLG, 483.1, hit, 1, 0
645, 5, T_Sinc, T_Sinc_DGLG, 322.6, hit, 1, 0
646, 5, T_Sinc, T_Sinc_DGLG, 361.9, hit, 1, 0
647, 5, T_Scon, T_Scon_UGLG, 273.4, hit, 1, 0
648, 5, T_Scon, T_Scon_UGLG, 268.9, hit, 1, 0
649, 5, T_Sinc, T_Sinc_DGLG, 0.1, miss, 1927200, 1
650, 5, T_Scon, T_Scon_UGLG, 1391.5, hit, 1, 2
651, 5, T_Scon, T_Scon_DRRR, 530.9, hit, 2, 0
652, 5, T_Scon, T_Scon_DRRR, 646.3, hit, 2, 0
653, 5, T_Sinc, T_Sinc_DGLG, 457.7, hit, 1, 0
654, 5, T_Sinc, T_Sinc_URRR, 569.2, hit, 2, 0
655, 5, T_Sinc, T_Sinc_DGLG, 516.7, hit, 1, 0
656, 5, T_Scon, T_Scon_DRRR, 420.0, incorrect, 1, 1
657, 5, T_Scon, T_Scon_UGLG, 307.5, hit, 1, 0
658, 5, T_Sinc, T_Sinc_DGLG, 359.0, hit, 1, 0
659, 5, T_Sinc, T_Sinc_URRR, 378.3, hit, 2, 0
660, 5, T_Sinc, T_Sinc_DGLG, 517.8, hit, 1, 0
661, 5, T_Scon, T_Scon_DRRR, 469.2, hit, 2, 0
662, 5, T_Sinc, T_Sinc_DGLG, 440.7, hit, 1, 0
663, 5, T_Scon, T_Scon_DRRR, 396.1, hit, 2, 0
664, 5, T_Sinc, T_Sinc_URRR, 447.5, hit, 2, 0
665, 5, T_Sinc, T_Sinc_DGLG, 455.0, hit, 1, 0
666, 5, T_Scon, T_Scon_UGLG, 410.4, hit, 1, 0
667, 5, T_Sinc, T_Sinc_DGLG, 509.8, hit, 1, 0
668, 5, T_Sinc, T_Sinc_DGLG, 413.3, hit, 1, 0
669, 5, T_Scon, T_Scon_DRRR, 940.7, hit, 2, 2
670, 5, T_Scon, T_Scon_UGLG, 508.1, hit, 1, 0
671, 5, T_Sinc, T_Sinc_URRR, 703.6, hit, 2, 0
672, 5, T_Sinc, T_Sinc_DGLG, 735.0, hit, 1, 0
673, 5, T_Scon, T_Scon_DRRR, 610.4, hit, 2, 0
674, 5, T_Sinc, T_Sinc_DGLG, 453.9, hit, 1, 0
675, 5, T_Scon, T_Scon_DRRR, 417.4, hit, 2, 0
676, 5, T_Sinc, T_Sinc_DGLG, 452.8, hit, 1, 0
677, 5, T_Sinc, T_Sinc_DGLG, 304.2, hit, 1, 0
678, 5, T_Scon, T_Scon_DRRR, 387.6, hit, 2, 0
679, 5, T_Scon, T_Scon_DRRR, 311.1, hit, 2, 0
680, 5, T_Sinc, T_Sinc_URRR, 530.6, hit, 2, 0
681, 5, T_Scon, T_Scon_UGLG, 373.9, hit, 1, 0
682, 5, T_Sinc, T_Sinc_URRR, 553.4, hit, 2, 0
683, 5, T_Scon, T_Scon_UGLG, 388.9, incorrect, 2, 1
684, 5, T_Scon, T_Scon_DRRR, 504.3, hit, 2, 0
685, 5, T_Sinc, T_Sinc_URRR, 471.5, hit, 2, 0
686, 5, T_Sinc, T_Sinc_URRR, 290.9, hit, 2, 0
687, 5, T_Sinc, T_Sinc_URRR, 374.4, hit, 2, 0
688, 5, T_Scon, T_Scon_DRRR, 401.7, hit, 2, 0
689, 5, T_Scon, T_Scon_DRRR, 325.2, hit, 2, 0
690, 5, T_Sinc, T_Sinc_DGLG, 376.6, hit, 1, 0
691, 5, T_Scon, T_Scon_UGLG, 348.1, hit, 1, 0
692, 5, T_Sinc, T_Sinc_URRR, 403.5, hit, 2, 0
693, 5, T_Sinc, T_Sinc_URRR, 290.9, hit, 2, 0
694, 5, T_Sinc, T_Sinc_DGLG, 382.4, hit, 1, 0
695, 5, T_Scon, T_Scon_UGLG, 389.9, hit, 1, 0
696, 5, T_Sinc, T_Sinc_URRR, 389.2, hit, 2, 0
697, 5, T_Scon, T_Scon_DRRR, 344.7, hit, 2, 0
698, 5, T_Sinc, T_Sinc_URRR, 348.2, hit, 2, 0
699, 5, T_Scon, T_Scon_DRRR, 351.6, hit, 2, 0
700, 5, T_Scon, T_Scon_DRRR, 287.0, hit, 2, 0
701, 5, T_Sinc, T_Sinc_URRR, 306.5, hit, 2, 0
702, 5, T_Sinc, T_Sinc_URRR, 325.9, hit, 2, 0
703, 5, T_Scon, T_Scon_DRRR, 341.3, hit, 2, 0
704, 5, T_Scon, T_Scon_UGLG, 368.7, hit, 1, 0
705, 5, T_Sinc, T_Sinc_DGLG, 372.2, hit, 1, 0
706, 5, T_Sinc, T_Sinc_URRR, 359.6, incorrect, 1, 1
707, 5, T_Scon, T_Scon_DRRR, 367.1, hit, 2, 0
708, 5, T_Sinc, T_Sinc_DGLG, 642.5, hit, 1, 0
709, 5, T_Scon, T_Scon_UGLG, 614.0, hit, 1, 0
710, 5, T_Scon, T_Scon_DRRR, 393.4, hit, 2, 0
711, 5, T_Sinc, T_Sinc_DGLG, 492.8, hit, 1, 0
712, 5, T_Sinc, T_Sinc_DGLG, 348.3, hit, 1, 0
713, 5, T_Sinc, T_Sinc_URRR, 355.7, hit, 2, 0
714, 5, T_Scon, T_Scon_UGLG, 523.2, hit, 1, 0
715, 5, T_Sinc, T_Sinc_URRR, 470.6, hit, 2, 0
716, 5, T_Sinc, T_Sinc_DGLG, 578.0, hit, 1, 0
717, 5, T_Sinc, T_Sinc_URRR, 589.5, hit, 2, 0
718, 5, T_Scon, T_Scon_UGLG, 772.8, hit, 1, 0
719, 5, T_Sinc, T_Sinc_DGLG, 520.3, hit, 1, 0
720, 5, T_Sinc, T_Sinc_URRR, 371.8, hit, 2, 0
721, 6, T_Sinc, T_Sinc_DGLG, 531.7, hit, 1, 0
722, 6, T_Scon, T_Scon_UGLG, 315.1, hit, 1, 0
723, 6, T_Sinc, T_Sinc_URRR, 390.6, hit, 2, 0
724, 6, T_Sinc, T_Sinc_URRR, 298.0, hit, 2, 0
725, 6, T_Scon, T_Scon_UGLG, 373.5, hit, 1, 0
726, 6, T_Sinc, T_Sinc_DGLG, 356.8, hit, 1, 0
727, 6, T_Scon, T_Scon_DRRR, 504.3, hit, 2, 0
728, 6, T_Sinc, T_Sinc_URRR, 455.8, hit, 2, 0
729, 6, T_Sinc, T_Sinc_DGLG, 471.2, hit, 1, 0
730, 6, T_Scon, T_Scon_DRRR, 410.6, hit, 2, 0
731, 6, T_Sinc, T_Sinc_URRR, 530.1, hit, 2, 0
732, 6, T_Sinc, T_Sinc_DGLG, 413.5, hit, 1, 0
733, 6, T_Scon, T_Scon_UGLG, 385.0, hit, 1, 0
734, 6, T_Scon, T_Scon_DRRR, 396.3, hit, 2, 0
735, 6, T_Scon, T_Scon_UGLG, 399.8, hit, 1, 0
736, 6, T_Scon, T_Scon_UGLG, 267.3, hit, 1, 0
737, 6, T_Sinc, T_Sinc_DGLG, 406.8, hit, 1, 0
738, 6, T_Sinc, T_Sinc_URRR, 402.1, hit, 2, 0
739, 6, T_Sinc, T_Sinc_URRR, 405.6, hit, 2, 0
740, 6, T_Scon, T_Scon_UGLG, 481.0, hit, 1, 0
741, 6, T_Sinc, T_Sinc_DGLG, 324.5, hit, 1, 0
742, 6, T_Sinc, T_Sinc_DGLG, 335.9, hit, 1, 0
743, 6, T_Scon, T_Scon_DRRR, 487.3, hit, 2, 0
744, 6, T_Scon, T_Scon_UGLG, 418.8, hit, 1, 0
745, 6, T_Sinc, T_Sinc_DGLG, 430.1, hit, 1, 0
746, 6, T_Sinc, T_Sinc_DGLG, 333.6, hit, 1, 0
747, 6, T_Sinc, T_Sinc_DGLG, 313.1, hit, 1, 0
748, 6, T_Sinc, T_Sinc_DGLG, 308.4, hit, 1, 0
749, 6, T_Sinc, T_Sinc_URRR, 391.9, hit, 2, 0
750, 6, T_Sinc, T_Sinc_DGLG, 495.4, hit, 1, 0
751, 6, T_Scon, T_Scon_UGLG, 418.8, hit, 1, 0
752, 6, T_Sinc, T_Sinc_DGLG, 350.2, hit, 1, 0
753, 6, T_Sinc, T_Sinc_DGLG, 377.7, hit, 1, 0
754, 6, T_Sinc, T_Sinc_DGLG, 349.1, hit, 1, 0
755, 6, T_Sinc, T_Sinc_DGLG, 272.5, hit, 1, 0
756, 6, T_Scon, T_Scon_DRRR, 439.9, hit, 2, 0
757, 6, T_Sinc, T_Sinc_URRR, 419.2, hit, 2, 0
758, 6, T_Sinc, T_Sinc_URRR, 326.5, hit, 2, 0
759, 6, T_Scon, T_Scon_UGLG, 410.0, hit, 1, 0
760, 6, T_Scon, T_Scon_DRRR, 429.5, hit, 2, 0
761, 6, T_Scon, T_Scon_DRRR, 576.9, hit, 2, 0
762, 6, T_Scon, T_Scon_DRRR, 620.3, hit, 2, 0
763, 6, T_Scon, T_Scon_DRRR, 319.8, hit, 2, 0
764, 6, T_Sinc, T_Sinc_URRR, 391.3, hit, 2, 0
765, 6, T_Scon, T_Scon_DRRR, 342.7, hit, 2, 0
766, 6, T_Scon, T_Scon_UGLG, 418.0, hit, 1, 0
767, 6, T_Scon, T_Scon_DRRR, 437.5, hit, 2, 0
768, 6, T_Sinc, T_Sinc_URRR, 641.0, hit, 2, 0
769, 6, T_Sinc, T_Sinc_DGLG, 488.3, hit, 1, 0
770, 6, T_Sinc, T_Sinc_URRR, 683.8, hit, 2, 0
771, 6, T_Scon, T_Scon_UGLG, 551.3, hit, 1, 0
772, 6, T_Sinc, T_Sinc_URRR, 906.6, hit, 2, 2
773, 6, T_Sinc, T_Sinc_URRR, 934.1, hit, 2, 2
774, 6, T_Scon, T_Scon_UGLG, 541.6, hit, 1, 0
775, 6, T_Sinc, T_Sinc_DGLG, 492.9, hit, 1, 0
776, 6, T_Sinc, T_Sinc_URRR, 416.4, hit, 2, 0
777, 6, T_Sinc, T_Sinc_URRR, 347.9, hit, 2, 0
778, 6, T_Scon, T_Scon_DRRR, 903.3, hit, 2, 2
779, 6, T_Scon, T_Scon_UGLG, 442.8, hit, 1, 0
780, 6, T_Sinc, T_Sinc_URRR, 574.1, hit, 2, 0
781, 6, T_Scon, T_Scon_DRRR, 397.6, hit, 2, 0
782, 6, T_Scon, T_Scon_UGLG, 537.1, hit, 1, 0
783, 6, T_Sinc, T_Sinc_DGLG, 776.5, hit, 1, 0
784, 6, T_Sinc, T_Sinc_DGLG, 331.9, hit, 1, 0
785, 6, T_Scon, T_Scon_UGLG, 387.4, hit, 1, 0
786, 6, T_Scon, T_Scon_DRRR, 454.8, hit, 2, 0
787, 6, T_Sinc, T_Sinc_URRR, 394.2, hit, 2, 0
788, 6, T_Sinc, T_Sinc_DGLG, 425.7, hit, 1, 0
789, 6, T_Sinc, T_Sinc_URRR, 477.1, hit, 2, 0
790, 6, T_Scon, T_Scon_DRRR, 376.6, hit, 2, 0
791, 6, T_Scon, T_Scon_UGLG, 448.0, hit, 1, 0
792, 6, T_Scon, T_Scon_DRRR, 515.4, hit, 2, 0
793, 6, T_Sinc, T_Sinc_URRR, 482.6, hit, 2, 0
794, 6, T_Sinc, T_Sinc_URRR, 358.0, hit, 2, 0
795, 6, T_Sinc, T_Sinc_DGLG, 489.5, hit, 1, 0
796, 6, T_Scon, T_Scon_DRRR, 456.9, hit, 2, 0
797, 6, T_Sinc, T_Sinc_URRR, 392.3, hit, 2, 0
798, 6, T_Scon, T_Scon_UGLG, 347.8, hit, 1, 0
799, 6, T_Scon, T_Scon_UGLG, 259.2, hit, 1, 0
800, 6, T_Scon, T_Scon_UGLG, 262.7, hit, 1, 0
801, 6, T_Scon, T_Scon_UGLG, 294.0, hit, 1, 0
802, 6, T_Sinc, T_Sinc_URRR, 409.5, hit, 2, 0
803, 6, T_Scon, T_Scon_UGLG, 357.0, hit, 1, 0
804, 6, T_Sinc, T_Sinc_URRR, 400.3, hit, 2, 0
805, 6, T_Scon, T_Scon_DRRR, 427.8, hit, 2, 0
806, 6, T_Scon, T_Scon_UGLG, 455.3, hit, 1, 0
807, 6, T_Sinc, T_Sinc_URRR, 350.7, hit, 2, 0
808, 6, T_Scon, T_Scon_DRRR, 402.1, hit, 2, 0
809, 6, T_Scon, T_Scon_DRRR, 405.6, hit, 2, 0
810, 6, T_Scon, T_Scon_UGLG, 365.0, hit, 1, 0
811, 6, T_Scon, T_Scon_UGLG, 316.4, hit, 1, 0
812, 6, T_Sinc, T_Sinc_DGLG, 351.9, hit, 1, 0
813, 6, T_Scon, T_Scon_DRRR, 459.3, hit, 2, 0
814, 6, T_Scon, T_Scon_DRRR, 362.8, hit, 2, 0
815, 6, T_Scon, T_Scon_DRRR, 322.1, hit, 2, 0
816, 6, T_Sinc, T_Sinc_DGLG, 361.6, hit, 1, 0
817, 6, T_Scon, T_Scon_UGLG, 445.1, hit, 1, 0
818, 6, T_Scon, T_Scon_DRRR, 568.5, hit, 2, 0
819, 6, T_Sinc, T_Sinc_DGLG, 583.9, hit, 1, 0
820, 6, T_Scon, T_Scon_DRRR, 435.3, hit, 2, 0
821, 6, T_Sinc, T_Sinc_DGLG, 438.8, hit, 1, 0
822, 6, T_Scon, T_Scon_UGLG, 322.3, hit, 1, 0
823, 6, T_Sinc, T_Sinc_DGLG, 305.6, hit, 1, 0
824, 6, T_Sinc, T_Sinc_DGLG, 501.1, hit, 1, 0
825, 6, T_Sinc, T_Sinc_DGLG, 268.6, hit, 1, 0
826, 6, T_Sinc, T_Sinc_URRR, 460.0, hit, 2, 0
827, 6, T_Sinc, T_Sinc_URRR, 351.4, hit, 2, 0
828, 6, T_Scon, T_Scon_DRRR, 330.9, hit, 2, 0
829, 6, T_Sinc, T_Sinc_DGLG, 506.1, hit, 1, 0
830, 6, T_Sinc, T_Sinc_DGLG, 293.4, hit, 1, 0
831, 6, T_Sinc, T_Sinc_URRR, 396.9, hit, 2, 0
832, 6, T_Scon, T_Scon_UGLG, 448.4, hit, 1, 0
833, 6, T_Sinc, T_Sinc_URRR, 411.8, hit, 2, 0
834, 6, T_Scon, T_Scon_DRRR, 543.2, incorrect, 1, 1
835, 6, T_Scon, T_Scon_DRRR, 390.7, hit, 2, 0
836, 6, T_Sinc, T_Sinc_URRR, 410.1, hit, 2, 0
837, 6, T_Scon, T_Scon_DRRR, 369.6, hit, 2, 0
838, 6, T_Scon, T_Scon_UGLG, 492.9, hit, 1, 0
839, 6, T_Sinc, T_Sinc_DGLG, 320.4, hit, 1, 0
840, 6, T_Sinc, T_Sinc_URRR, 399.9, hit, 2, 0
841, 6, T_Scon, T_Scon_DRRR, 331.2, hit, 2, 0
842, 6, T_Sinc, T_Sinc_URRR, 358.7, hit, 2, 0
843, 6, T_Scon, T_Scon_UGLG, 390.2, hit, 1, 0
844, 6, T_Scon, T_Scon_UGLG, 297.6, hit, 1, 0
845, 6, T_Scon, T_Scon_DRRR, 401.0, hit, 2, 0
846, 6, T_Scon, T_Scon_DRRR, 260.5, hit, 2, 0
847, 6, T_Scon, T_Scon_UGLG, 371.9, hit, 1, 0
848, 6, T_Scon, T_Scon_UGLG, 271.4, hit, 1, 0
849, 6, T_Scon, T_Scon_UGLG, 330.8, hit, 1, 0
850, 6, T_Sinc, T_Sinc_DGLG, 394.2, hit, 1, 0
851, 6, T_Scon, T_Scon_UGLG, 241.7, hit, 1, 0
852, 6, T_Sinc, T_Sinc_DGLG, 269.2, hit, 1, 0
853, 6, T_Sinc, T_Sinc_DGLG, 304.5, hit, 1, 0
854, 6, T_Sinc, T_Sinc_URRR, 432.0, hit, 2, 0
855, 6, T_Scon, T_Scon_DRRR, 307.4, hit, 2, 0
856, 6, T_Scon, T_Scon_DRRR, 282.9, hit, 2, 0
857, 6, T_Scon, T_Scon_DRRR, 334.3, hit, 2, 0
858, 6, T_Scon, T_Scon_DRRR, 297.7, hit, 2, 0
859, 6, T_Sinc, T_Sinc_URRR, 357.2, hit, 2, 0
860, 6, T_Sinc, T_Sinc_URRR, 316.6, hit, 2, 0
861, 6, T_Sinc, T_Sinc_DGLG, 424.0, hit, 1, 0
862, 6, T_Sinc, T_Sinc_URRR, 535.5, hit, 2, 0
863, 6, T_Scon, T_Scon_UGLG, 434.9, hit, 1, 0
864, 6, T_Scon, T_Scon_UGLG, 350.4, hit, 1, 0
865, 7, T_Sinc, T_Sinc_DGLG, 495.3, hit, 1, 0
866, 7, T_Sinc, T_Sinc_URRR, 426.7, hit, 2, 0
867, 7, T_Scon, T_Scon_UGLG, 318.2, hit, 1, 0
868, 7, T_Sinc, T_Sinc_URRR, 421.5, hit, 2, 0
869, 7, T_Scon, T_Scon_UGLG, 437.0, hit, 1, 0
870, 7, T_Scon, T_Scon_DRRR, 536.4, hit, 2, 0
871, 7, T_Sinc, T_Sinc_URRR, 811.9, hit, 2, 0
872, 7, T_Sinc, T_Sinc_DGLG, 799.2, hit, 1, 0
873, 7, T_Scon, T_Scon_DRRR, 494.7, incorrect, 1, 1
874, 7, T_Scon, T_Scon_UGLG, 578.2, hit, 1, 0
875, 7, T_Scon, T_Scon_UGLG, 285.7, hit, 1, 0
876, 7, T_Scon, T_Scon_DRRR, 389.0, hit, 2, 0
877, 7, T_Sinc, T_Sinc_DGLG, 372.5, hit, 1, 0
878, 7, T_Sinc, T_Sinc_DGLG, 340.0, hit, 1, 0
879, 7, T_Scon, T_Scon_UGLG, 311.4, hit, 1, 0
880, 7, T_Sinc, T_Sinc_URRR, 354.8, hit, 2, 0
881, 7, T_Sinc, T_Sinc_URRR, 378.3, hit, 2, 0
882, 7, T_Sinc, T_Sinc_URRR, 289.7, hit, 2, 0
883, 7, T_Scon, T_Scon_UGLG, 377.2, hit, 1, 0
884, 7, T_Sinc, T_Sinc_DGLG, 708.5, hit, 1, 0
885, 7, T_Scon, T_Scon_DRRR, 416.0, hit, 2, 0
886, 7, T_Scon, T_Scon_UGLG, 591.5, hit, 1, 0
887, 7, T_Scon, T_Scon_UGLG, 323.0, hit, 1, 0
888, 7, T_Scon, T_Scon_UGLG, 318.3, hit, 1, 0
889, 7, T_Sinc, T_Sinc_URRR, 585.8, hit, 2, 0
890, 7, T_Sinc, T_Sinc_URRR, 621.2, hit, 2, 0
891, 7, T_Scon, T_Scon_DRRR, 364.6, incorrect, 1, 1
892, 7, T_Sinc, T_Sinc_DGLG, 468.1, hit, 1, 0
893, 7, T_Scon, T_Scon_DRRR, 375.5, hit, 2, 0
894, 7, T_Scon, T_Scon_DRRR, 343.0, hit, 2, 0
895, 7, T_Scon, T_Scon_UGLG, 370.4, hit, 1, 0
896, 7, T_Sinc, T_Sinc_URRR, 445.8, hit, 2, 0
897, 7, T_Sinc, T_Sinc_DGLG, 561.3, hit, 1, 0
898, 7, T_Scon, T_Scon_UGLG, 520.8, hit, 1, 0
899, 7, T_Scon, T_Scon_UGLG, 316.1, hit, 1, 0
900, 7, T_Sinc, T_Sinc_DGLG, 351.6, hit, 1, 0
901, 7, T_Scon, T_Scon_DRRR, 630.8, hit, 2, 0
902, 7, T_Sinc, T_Sinc_URRR, 458.1, hit, 2, 0
903, 7, T_Sinc, T_Sinc_URRR, 313.6, hit, 2, 0
904, 7, T_Sinc, T_Sinc_DGLG, 365.0, hit, 1, 0
905, 7, T_Sinc, T_Sinc_URRR, 484.5, hit, 2, 0
906, 7, T_Sinc, T_Sinc_DGLG, 439.9, hit, 1, 0
907, 7, T_Sinc, T_Sinc_URRR, 339.4, hit, 2, 0
908, 7, T_Scon, T_Scon_DRRR, 310.7, hit, 2, 0
909, 7, T_Scon, T_Scon_UGLG, 330.2, hit, 1, 0
910, 7, T_Scon, T_Scon_UGLG, 301.7, hit, 1, 0
911, 7, T_Sinc, T_Sinc_DGLG, 293.1, hit, 1, 0
912, 7, T_Sinc, T_Sinc_DGLG, 272.5, hit, 1, 0
913, 7, T_Scon, T_Scon_UGLG, 315.9, hit, 1, 0
914, 7, T_Sinc, T_Sinc_DGLG, 303.4, hit, 1, 0
915, 7, T_Sinc, T_Sinc_URRR, 370.9, hit, 2, 0
916, 7, T_Sinc, T_Sinc_URRR, 318.3, hit, 2, 0
917, 7, T_Sinc, T_Sinc_URRR, 369.7, hit, 2, 0
918, 7, T_Sinc, T_Sinc_DGLG, 429.2, hit, 1, 0
919, 7, T_Scon, T_Scon_DRRR, 436.6, hit, 2, 0
920, 7, T_Sinc, T_Sinc_DGLG, 368.0, incorrect, 2, 1
921, 7, T_Sinc, T_Sinc_URRR, 415.5, hit, 2, 0
922, 7, T_Sinc, T_Sinc_DGLG, 490.9, hit, 1, 0
923, 7, T_Sinc, T_Sinc_DGLG, 350.4, hit, 1, 0
924, 7, T_Sinc, T_Sinc_URRR, 417.8, hit, 2, 0
925, 7, T_Sinc, T_Sinc_URRR, 437.2, hit, 2, 0
926, 7, T_Scon, T_Scon_DRRR, 448.7, hit, 2, 0
927, 7, T_Scon, T_Scon_DRRR, 332.1, hit, 2, 0
928, 7, T_Sinc, T_Sinc_DGLG, 503.5, hit, 1, 0
929, 7, T_Scon, T_Scon_UGLG, 531.0, hit, 1, 0
930, 7, T_Sinc, T_Sinc_DGLG, 570.4, hit, 1, 0
931, 7, T_Scon, T_Scon_DRRR, 477.8, hit, 2, 0
932, 7, T_Scon, T_Scon_UGLG, 729.3, hit, 1, 0
933, 7, T_Sinc, T_Sinc_URRR, 1012.7, hit, 2, 2
934, 7, T_Scon, T_Scon_DRRR, 616.2, hit, 2, 0
935, 7, T_Scon, T_Scon_UGLG, 655.6, hit, 1, 0
936, 7, T_Scon, T_Scon_UGLG, 439.0, hit, 1, 0
937, 7, T_Scon, T_Scon_UGLG, 462.3, hit, 1, 0
938, 7, T_Scon, T_Scon_DRRR, 357.6, hit, 2, 0
939, 7, T_Sinc, T_Sinc_URRR, 305.1, hit, 2, 0
940, 7, T_Sinc, T_Sinc_URRR, 284.5, hit, 2, 0
941, 7, T_Sinc, T_Sinc_URRR, 259.9, hit, 2, 0
942, 7, T_Scon, T_Scon_UGLG, 367.4, hit, 1, 0
943, 7, T_Sinc, T_Sinc_URRR, 386.8, hit, 2, 0
944, 7, T_Scon, T_Scon_UGLG, 374.3, hit, 1, 0
945, 7, T_Scon, T_Scon_UGLG, 253.6, hit, 1, 0
946, 7, T_Sinc, T_Sinc_URRR, 405.1, hit, 2, 0
947, 7, T_Sinc, T_Sinc_DGLG, 616.6, hit, 1, 0
948, 7, T_Scon, T_Scon_DRRR, 563.9, hit, 2, 0
949, 7, T_Scon, T_Scon_UGLG, 795.4, hit, 1, 2
950, 7, T_Sinc, T_Sinc_URRR, 638.9, hit, 2, 0
951, 7, T_Sinc, T_Sinc_URRR, 682.3, hit, 2, 0
952, 7, T_Sinc, T_Sinc_DGLG, 445.7, hit, 1, 0
953, 7, T_Sinc, T_Sinc_DGLG, 265.2, hit, 1, 0
954, 7, T_Scon, T_Scon_DRRR, 460.6, hit, 2, 0
955, 7, T_Scon, T_Scon_DRRR, 368.1, hit, 2, 0
956, 7, T_Scon, T_Scon_UGLG, 371.4, hit, 1, 0
957, 7, T_Sinc, T_Sinc_DGLG, 446.9, hit, 1, 0
958, 7, T_Sinc, T_Sinc_DGLG, 378.4, hit, 1, 0
959, 7, T_Sinc, T_Sinc_URRR, 341.8, hit, 2, 0
960, 7, T_Scon, T_Scon_UGLG, 353.2, hit, 1, 0
961, 7, T_Sinc, T_Sinc_DGLG, 660.7, hit, 1, 0
962, 7, T_Scon, T_Scon_DRRR, 520.1, hit, 2, 0
963, 7, T_Scon, T_Scon_DRRR, 427.6, hit, 2, 0
964, 7, T_Scon, T_Scon_DRRR, 471.0, hit, 2, 0
965, 7, T_Scon, T_Scon_UGLG, 478.4, hit, 1, 0
966, 7, T_Scon, T_Scon_DRRR, 345.9, hit, 2, 0
967, 7, T_Scon, T_Scon_UGLG, 625.3, hit, 1, 0
968, 7, T_Sinc, T_Sinc_URRR, 452.7, hit, 2, 0
969, 7, T_Sinc, T_Sinc_URRR, 456.2, hit, 2, 0
970, 7, T_Scon, T_Scon_DRRR, 367.7, hit, 2, 0
971, 7, T_Sinc, T_Sinc_URRR, 531.0, hit, 2, 0
972, 7, T_Sinc, T_Sinc_DGLG, 378.5, hit, 1, 0
973, 7, T_Sinc, T_Sinc_DGLG, 497.7, hit, 1, 0
974, 7, T_Scon, T_Scon_DRRR, 353.0, hit, 2, 0
975, 7, T_Scon, T_Scon_UGLG, 348.5, hit, 1, 0
976, 7, T_Sinc, T_Sinc_URRR, 440.0, hit, 2, 0
977, 7, T_Scon, T_Scon_UGLG, 479.3, hit, 1, 0
978, 7, T_Scon, T_Scon_UGLG, 274.8, hit, 1, 0
979, 7, T_Scon, T_Scon_DRRR, 354.3, hit, 2, 0
980, 7, T_Scon, T_Scon_UGLG, 301.7, hit, 1, 0
981, 7, T_Sinc, T_Sinc_DGLG, 293.1, hit, 1, 0
982, 7, T_Sinc, T_Sinc_DGLG, 328.6, hit, 1, 0
983, 7, T_Scon, T_Scon_DRRR, 356.0, hit, 2, 0
984, 7, T_Scon, T_Scon_DRRR, 439.4, hit, 2, 0
985, 7, T_Scon, T_Scon_DRRR, 406.9, hit, 2, 0
986, 7, T_Sinc, T_Sinc_DGLG, 426.3, hit, 1, 0
987, 7, T_Scon, T_Scon_DRRR, 369.8, hit, 2, 0
988, 7, T_Scon, T_Scon_UGLG, 361.1, hit, 1, 0
989, 7, T_Sinc, T_Sinc_DGLG, 332.6, hit, 1, 0
990, 7, T_Sinc, T_Sinc_DGLG, 284.1, hit, 1, 0
991, 7, T_Sinc, T_Sinc_DGLG, 363.5, hit, 1, 0
992, 7, T_Scon, T_Scon_DRRR, 370.9, hit, 2, 0
993, 7, T_Scon, T_Scon_UGLG, 446.4, hit, 1, 0
994, 7, T_Scon, T_Scon_UGLG, 317.8, hit, 1, 0
995, 7, T_Sinc, T_Sinc_DGLG, 369.3, hit, 1, 0
996, 7, T_Sinc, T_Sinc_DGLG, 328.7, hit, 1, 0
997, 7, T_Scon, T_Scon_DRRR, 368.1, hit, 2, 0
998, 7, T_Scon, T_Scon_DRRR, 627.6, hit, 2, 0
999, 7, T_Scon, T_Scon_DRRR, 443.0, hit, 2, 0
1000, 7, T_Scon, T_Scon_DRRR, 446.4, hit, 2, 0
1001, 7, T_Scon, T_Scon_UGLG, 425.9, hit, 1, 0
1002, 7, T_Sinc, T_Sinc_URRR, 393.3, hit, 2, 0
1003, 7, T_Scon, T_Scon_DRRR, 488.7, hit, 2, 0
1004, 7, T_Sinc, T_Sinc_URRR, 468.2, hit, 2, 0
1005, 7, T_Scon, T_Scon_DRRR, 367.7, hit, 2, 0
1006, 7, T_Sinc, T_Sinc_URRR, 359.0, hit, 2, 0
1007, 7, T_Sinc, T_Sinc_DGLG, 874.5, hit, 1, 2
1008, 7, T_Sinc, T_Sinc_URRR, 629.9, hit, 2, 0
1009, 8, T_Sinc, T_Sinc_URRR, 606.4, hit, 2, 0
1010, 8, T_Sinc, T_Sinc_URRR, 333.8, hit, 2, 0
1011, 8, T_Scon, T_Scon_DRRR, 377.2, hit, 2, 0
1012, 8, T_Scon, T_Scon_DRRR, 412.6, hit, 2, 0
1013, 8, T_Scon, T_Scon_UGLG, 340.1, hit, 1, 0
1014, 8, T_Sinc, T_Sinc_URRR, 503.5, hit, 2, 0
1015, 8, T_Sinc, T_Sinc_DGLG, 587.0, hit, 1, 0
1016, 8, T_Scon, T_Scon_UGLG, 350.4, hit, 1, 0
1017, 8, T_Scon, T_Scon_UGLG, 321.8, hit, 1, 0
1018, 8, T_Sinc, T_Sinc_URRR, 377.2, hit, 2, 0
1019, 8, T_Scon, T_Scon_UGLG, 388.7, hit, 1, 0
1020, 8, T_Sinc, T_Sinc_URRR, 492.1, hit, 2, 0
1021, 8, T_Scon, T_Scon_UGLG, 447.5, hit, 1, 0
1022, 8, T_Scon, T_Scon_UGLG, 347.0, hit, 1, 0
1023, 8, T_Scon, T_Scon_DRRR, 386.4, hit, 2, 0
1024, 8, T_Scon, T_Scon_UGLG, 397.9, hit, 1, 0
1025, 8, T_Sinc, T_Sinc_URRR, 469.3, hit, 2, 0
1026, 8, T_Scon, T_Scon_DRRR, 400.8, hit, 2, 0
1027, 8, T_Scon, T_Scon_UGLG, 388.2, hit, 1, 0
1028, 8, T_Scon, T_Scon_UGLG, 335.6, hit, 1, 0
1029, 8, T_Sinc, T_Sinc_DGLG, 347.0, hit, 1, 0
1030, 8, T_Scon, T_Scon_DRRR, 414.5, hit, 2, 0
1031, 8, T_Scon, T_Scon_DRRR, 369.9, hit, 2, 0
1032, 8, T_Sinc, T_Sinc_DGLG, 377.3, hit, 1, 0
1033, 8, T_Sinc, T_Sinc_URRR, 576.8, hit, 2, 0
1034, 8, T_Sinc, T_Sinc_URRR, 572.3, hit, 2, 0
1035, 8, T_Sinc, T_Sinc_URRR, 331.6, hit, 2, 0
1036, 8, T_Scon, T_Scon_UGLG, 443.1, hit, 1, 0
1037, 8, T_Sinc, T_Sinc_DGLG, 310.6, hit, 1, 0
1038, 8, T_Scon, T_Scon_DRRR, 529.9, hit, 2, 0
1039, 8, T_Sinc, T_Sinc_URRR, 437.4, hit, 2, 0
1040, 8, T_Sinc, T_Sinc_URRR, 464.9, hit, 2, 0
1041, 8, T_Scon, T_Scon_DRRR, 344.3, hit, 2, 0
1042, 8, T_Scon, T_Scon_UGLG, 307.7, hit, 1, 0
1043, 8, T_Sinc, T_Sinc_DGLG, 367.1, hit, 1, 0
1044, 8, T_Scon, T_Scon_DRRR, 546.6, hit, 2, 0
1045, 8, T_Sinc, T_Sinc_DGLG, 441.8, hit, 1, 0
1046, 8, T_Sinc, T_Sinc_DGLG, 317.2, hit, 1, 0
1047, 8, T_Scon, T_Scon_UGLG, 640.6, hit, 1, 0
1048, 8, T_Sinc, T_Sinc_URRR, 336.0, hit, 2, 0
1049, 8, T_Scon, T_Scon_UGLG, 671.5, hit, 1, 0
1050, 8, T_Sinc, T_Sinc_URRR, 390.9, hit, 2, 0
1051, 8, T_Scon, T_Scon_UGLG, 378.3, hit, 1, 0
1052, 8, T_Sinc, T_Sinc_URRR, 405.8, hit, 2, 0
1053, 8, T_Scon, T_Scon_DRRR, 377.2, hit, 2, 0
1054, 8, T_Sinc, T_Sinc_DGLG, 340.7, hit, 1, 0
1055, 8, T_Scon, T_Scon_DRRR, 472.2, hit, 2, 0
1056, 8, T_Sinc, T_Sinc_URRR, 279.5, incorrect, 1, 1
1057, 8, T_Scon, T_Scon_UGLG, 355.0, hit, 1, 0
1058, 8, T_Sinc, T_Sinc_DGLG, 342.4, hit, 1, 0
1059, 8, T_Scon, T_Scon_DRRR, 413.9, hit, 2, 0
1060, 8, T_Sinc, T_Sinc_URRR, 281.3, hit, 2, 0
1061, 8, T_Scon, T_Scon_UGLG, 332.7, hit, 1, 0
1062, 8, T_Sinc, T_Sinc_DGLG, 352.2, hit, 1, 0
1063, 8, T_Sinc, T_Sinc_DGLG, 359.6, hit, 1, 0
1064, 8, T_Scon, T_Scon_DRRR, 387.0, hit, 2, 0
1065, 8, T_Sinc, T_Sinc_URRR, 334.5, hit, 2, 0
1066, 8, T_Sinc, T_Sinc_URRR, 418.0, hit, 2, 0
1067, 8, T_Sinc, T_Sinc_URRR, 297.4, hit, 2, 0
1068, 8, T_Sinc, T_Sinc_DGLG, 484.9, hit, 1, 0
1069, 8, T_Sinc, T_Sinc_URRR, 352.2, hit, 2, 0
1070, 8, T_Sinc, T_Sinc_DGLG, 791.7, hit, 1, 0
1071, 8, T_Sinc, T_Sinc_URRR, 491.2, hit, 2, 0
1072, 8, T_Sinc, T_Sinc_DGLG, 366.6, hit, 1, 0
1073, 8, T_Scon, T_Scon_DRRR, 414.0, hit, 2, 0
1074, 8, T_Scon, T_Scon_UGLG, 361.5, hit, 1, 0
1075, 8, T_Sinc, T_Sinc_DGLG, 532.9, hit, 1, 0
1076, 8, T_Sinc, T_Sinc_DGLG, 328.3, hit, 1, 0
1077, 8, T_Scon, T_Scon_DRRR, 379.8, hit, 2, 0
1078, 8, T_Sinc, T_Sinc_URRR, 495.2, hit, 2, 0
1079, 8, T_Scon, T_Scon_DRRR, 362.6, hit, 2, 0
1080, 8, T_Scon, T_Scon_DRRR, 518.1, hit, 2, 0
1081, 8, T_Sinc, T_Sinc_DGLG, 389.3, hit, 1, 0
1082, 8, T_Scon, T_Scon_DRRR, 376.6, hit, 2, 0
1083, 8, T_Sinc, T_Sinc_DGLG, 408.1, hit, 1, 0
1084, 8, T_Sinc, T_Sinc_DGLG, 375.6, hit, 1, 0
1085, 8, T_Scon, T_Scon_UGLG, 346.9, hit, 1, 0
1086, 8, T_Scon, T_Scon_UGLG, 254.4, hit, 1, 0
1087, 8, T_Scon, T_Scon_UGLG, 309.8, hit, 1, 0
1088, 8, T_Sinc, T_Sinc_URRR, 501.3, hit, 2, 0
1089, 8, T_Scon, T_Scon_UGLG, 488.7, hit, 1, 0
1090, 8, T_Sinc, T_Sinc_URRR, 396.1, hit, 2, 0
1091, 8, T_Sinc, T_Sinc_DGLG, 451.6, hit, 1, 0
1092, 8, T_Scon, T_Scon_DRRR, 367.0, hit, 2, 0
1093, 8, T_Scon, T_Scon_DRRR, 358.4, hit, 2, 0
1094, 8, T_Sinc, T_Sinc_DGLG, 425.9, hit, 1, 0
1095, 8, T_Sinc, T_Sinc_DGLG, 305.4, hit, 1, 0
1096, 8, T_Scon, T_Scon_UGLG, 528.8, hit, 1, 0
1097, 8, T_Sinc, T_Sinc_URRR, 468.2, hit, 2, 0
1098, 8, T_Scon, T_Scon_UGLG, 335.7, hit, 1, 0
1099, 8, T_Sinc, T_Sinc_URRR, 387.1, hit, 2, 0
1100, 8, T_Scon, T_Scon_DRRR, 370.5, hit, 2, 0
1101, 8, T_Scon, T_Scon_DRRR, 317.9, hit, 2, 0
1102, 8, T_Scon, T_Scon_UGLG, 317.4, hit, 1, 0
1103, 8, T_Scon, T_Scon_UGLG, 284.9, hit, 1, 0
1104, 8, T_Sinc, T_Sinc_DGLG, 332.2, hit, 1, 0
1105, 8, T_Scon, T_Scon_UGLG, 231.7, hit, 1, 0
1106, 8, T_Sinc, T_Sinc_URRR, 519.2, hit, 2, 0
1107, 8, T_Scon, T_Scon_DRRR, 346.6, hit, 2, 0
1108, 8, T_Scon, T_Scon_DRRR, 306.1, hit, 2, 0
1109, 8, T_Sinc, T_Sinc_DGLG, 413.4, hit, 1, 0
1110, 8, T_Scon, T_Scon_DRRR, 393.0, hit, 2, 0
1111, 8, T_Scon, T_Scon_DRRR, 308.4, hit, 2, 0
1112, 8, T_Sinc, T_Sinc_DGLG, 411.8, hit, 1, 0
1113, 8, T_Sinc, T_Sinc_DGLG, 295.2, hit, 1, 0
1114, 8, T_Scon, T_Scon_UGLG, 354.7, hit, 1, 0
1115, 8, T_Scon, T_Scon_DRRR, 374.1, hit, 2, 0
1116, 8, T_Scon, T_Scon_DRRR, 265.5, hit, 2, 0
1117, 8, T_Sinc, T_Sinc_DGLG, 464.7, hit, 1, 0
1118, 8, T_Sinc, T_Sinc_URRR, 324.2, hit, 2, 0
1119, 8, T_Scon, T_Scon_UGLG, 335.5, hit, 1, 0
1120, 8, T_Scon, T_Scon_UGLG, 275.0, hit, 1, 0
1121, 8, T_Scon, T_Scon_DRRR, 334.5, hit, 2, 0
1122, 8, T_Sinc, T_Sinc_URRR, 281.9, hit, 2, 0
1123, 8, T_Scon, T_Scon_DRRR, 305.4, hit, 2, 0
1124, 8, T_Scon, T_Scon_UGLG, 324.7, hit, 1, 0
1125, 8, T_Sinc, T_Sinc_URRR, 432.2, incorrect, 1, 1
1126, 8, T_Scon, T_Scon_UGLG, 435.7, hit, 1, 0
1127, 8, T_Sinc, T_Sinc_URRR, 463.1, hit, 2, 0
1128, 8, T_Sinc, T_Sinc_URRR, 482.5, hit, 2, 0
1129, 8, T_Sinc, T_Sinc_URRR, 478.0, hit, 2, 0
1130, 8, T_Sinc, T_Sinc_URRR, 321.4, hit, 2, 0
1131, 8, T_Scon, T_Scon_UGLG, 492.8, hit, 1, 0
1132, 8, T_Scon, T_Scon_DRRR, 452.3, hit, 2, 0
1133, 8, T_Scon, T_Scon_UGLG, 603.7, hit, 1, 0
1134, 8, T_Sinc, T_Sinc_URRR, 363.2, hit, 2, 0
1135, 8, T_Sinc, T_Sinc_DGLG, 570.5, hit, 1, 0
1136, 8, T_Sinc, T_Sinc_URRR, 474.0, hit, 2, 0
1137, 8, T_Scon, T_Scon_UGLG, 449.5, hit, 1, 0
1138, 8, T_Sinc, T_Sinc_DGLG, 396.8, hit, 1, 0
1139, 8, T_Scon, T_Scon_DRRR, 504.3, hit, 2, 0
1140, 8, T_Sinc, T_Sinc_DGLG, 563.8, hit, 1, 0
1141, 8, T_Scon, T_Scon_DRRR, 647.2, hit, 2, 0
1142, 8, T_Scon, T_Scon_DRRR, 350.6, hit, 2, 0
1143, 8, T_Sinc, T_Sinc_DGLG, 322.1, hit, 1, 0
1144, 8, T_Scon, T_Scon_UGLG, 309.5, hit, 1, 0
1145, 8, T_Scon, T_Scon_DRRR, 320.9, hit, 2, 0
1146, 8, T_Sinc, T_Sinc_DGLG, 540.3, hit, 1, 0
1147, 8, T_Sinc, T_Sinc_DGLG, 371.8, hit, 1, 0
1148, 8, T_Sinc, T_Sinc_DGLG, 435.3, hit, 1, 0
1149, 8, T_Sinc, T_Sinc_DGLG, 278.7, hit, 1, 0
1150, 8, T_Sinc, T_Sinc_DGLG, 350.1, hit, 1, 0
1151, 8, T_Scon, T_Scon_UGLG, 437.6, incorrect, 2, 1
1152, 8, T_Scon, T_Scon_DRRR, 509.1, hit, 2, 0
1153, 9, T_Scon, T_Scon_DRRR, 471.2, hit, 2, 0
1154, 9, T_Scon, T_Scon_UGLG, 346.5, hit, 1, 0
1155, 9, T_Sinc, T_Sinc_DGLG, 314.0, hit, 1, 0
1156, 9, T_Sinc, T_Sinc_URRR, 421.5, hit, 2, 0
1157, 9, T_Scon, T_Scon_UGLG, 368.8, hit, 1, 0
1158, 9, T_Sinc, T_Sinc_URRR, 364.3, hit, 2, 0
1159, 9, T_Scon, T_Scon_DRRR, 351.7, hit, 2, 0
1160, 9, T_Sinc, T_Sinc_DGLG, 315.2, hit, 1, 0
1161, 9, T_Sinc, T_Sinc_DGLG, 318.6, hit, 1, 0
1162, 9, T_Sinc, T_Sinc_URRR, 334.0, hit, 2, 0
1163, 9, T_Scon, T_Scon_UGLG, 337.5, hit, 1, 0
1164, 9, T_Sinc, T_Sinc_DGLG, 261.0, hit, 1, 0
1165, 9, T_Sinc, T_Sinc_DGLG, 304.3, hit, 1, 0
1166, 9, T_Sinc, T_Sinc_DGLG, 291.8, hit, 1, 0
1167, 9, T_Scon, T_Scon_UGLG, 279.3, hit, 1, 0
1168, 9, T_Scon, T_Scon_UGLG, 238.6, hit, 1, 0
1169, 9, T_Scon, T_Scon_DRRR, 382.1, hit, 2, 0
1170, 9, T_Scon, T_Scon_UGLG, 361.5, hit, 1, 0
1171, 9, T_Sinc, T_Sinc_URRR, 628.9, hit, 2, 0
1172, 9, T_Scon, T_Scon_DRRR, 300.4, hit, 2, 0
1173, 9, T_Sinc, T_Sinc_URRR, 303.8, hit, 2, 0
1174, 9, T_Sinc, T_Sinc_URRR, 283.3, hit, 2, 0
1175, 9, T_Sinc, T_Sinc_URRR, 314.7, hit, 2, 0
1176, 9, T_Scon, T_Scon_UGLG, 350.1, hit, 1, 0
1177, 9, T_Scon, T_Scon_UGLG, 277.6, hit, 1, 0
1178, 9, T_Sinc, T_Sinc_DGLG, 569.0, hit, 1, 0
1179, 9, T_Sinc, T_Sinc_URRR, 348.4, hit, 2, 0
1180, 9, T_Sinc, T_Sinc_URRR, 487.9, hit, 2, 0
1181, 9, T_Scon, T_Scon_DRRR, 351.3, hit, 2, 0
1182, 9, T_Scon, T_Scon_DRRR, 354.7, hit, 2, 0
1183, 9, T_Sinc, T_Sinc_URRR, 458.2, hit, 2, 0
1184, 9, T_Sinc, T_Sinc_DGLG, 489.7, hit, 1, 0
1185, 9, T_Sinc, T_Sinc_DGLG, 405.0, hit, 1, 0
1186, 9, T_Scon, T_Scon_UGLG, 328.5, hit, 1, 0
1187, 9, T_Sinc, T_Sinc_DGLG, 327.9, hit, 1, 0
1188, 9, T_Scon, T_Scon_DRRR, 527.4, hit, 2, 0
1189, 9, T_Scon, T_Scon_DRRR, 394.6, incorrect, 1, 1
1190, 9, T_Sinc, T_Sinc_URRR, 558.0, hit, 2, 0
1191, 9, T_Scon, T_Scon_UGLG, 521.3, hit, 1, 0
1192, 9, T_Sinc, T_Sinc_URRR, 420.8, hit, 2, 0
1193, 9, T_Sinc, T_Sinc_URRR, 448.3, hit, 2, 0
1194, 9, T_Scon, T_Scon_DRRR, 379.7, hit, 2, 0
1195, 9, T_Scon, T_Scon_UGLG, 439.1, hit, 1, 0
1196, 9, T_Scon, T_Scon_DRRR, 562.6, hit, 2, 0
1197, 9, T_Scon, T_Scon_UGLG, 886.0, hit, 1, 2
1198, 9, T_Sinc, T_Sinc_URRR, 541.5, hit, 2, 0
1199, 9, T_Scon, T_Scon_UGLG, 500.9, hit, 1, 0
1200, 9, T_Sinc, T_Sinc_DGLG, 376.3, hit, 1, 0
1201, 9, T_Sinc, T_Sinc_URRR, 395.8, hit, 2, 0
1202, 9, T_Sinc, T_Sinc_URRR, 767.2, hit, 2, 0
1203, 9, T_Scon, T_Scon_DRRR, 606.6, hit, 2, 0
1204, 9, T_Scon, T_Scon_DRRR, 522.1, hit, 2, 0
1205, 9, T_Scon, T_Scon_DRRR, 349.5, hit, 2, 0
1206, 9, T_Scon, T_Scon_UGLG, 336.9, hit, 1, 0
1207, 9, T_Scon, T_Scon_UGLG, 308.4, hit, 1, 0
1208, 9, T_Sinc, T_Sinc_DGLG, 327.8, hit, 1, 0
1209, 9, T_Sinc, T_Sinc_DGLG, 299.3, hit, 1, 0
1210, 9, T_Sinc, T_Sinc_URRR, 398.7, hit, 2, 0
1211, 9, T_Sinc, T_Sinc_URRR, 366.1, hit, 2, 0
1212, 9, T_Sinc, T_Sinc_URRR, 313.6, hit, 2, 0
1213, 9, T_Scon, T_Scon_UGLG, 369.1, hit, 1, 0
1214, 9, T_Scon, T_Scon_UGLG, 288.4, hit, 1, 0
1215, 9, T_Scon, T_Scon_UGLG, 283.9, hit, 1, 0
1216, 9, T_Sinc, T_Sinc_URRR, 375.3, hit, 2, 0
1217, 9, T_Scon, T_Scon_DRRR, 486.8, hit, 2, 0
1218, 9, T_Scon, T_Scon_DRRR, 338.2, hit, 2, 0
1219, 9, T_Sinc, T_Sinc_DGLG, 389.6, hit, 1, 0
1220, 9, T_Scon, T_Scon_DRRR, 433.1, hit, 2, 0
1221, 9, T_Scon, T_Scon_DRRR, 292.6, hit, 2, 0
1222, 9, T_Scon, T_Scon_UGLG, 304.0, hit, 1, 0
1223, 9, T_Sinc, T_Sinc_URRR, 479.4, hit, 2, 0
1224, 9, T_Scon, T_Scon_UGLG, 498.8, hit, 1, 0
1225, 9, T_Sinc, T_Sinc_DGLG, 442.0, incorrect, 2, 1
1226, 9, T_Scon, T_Scon_DRRR, 401.4, hit, 2, 0
1227, 9, T_Sinc, T_Sinc_DGLG, 624.9, hit, 1, 0
1228, 9, T_Scon, T_Scon_DRRR, 564.3, hit, 2, 0
1229, 9, T_Sinc, T_Sinc_URRR, 519.7, hit, 2, 0
1230, 9, T_Sinc, T_Sinc_DGLG, 359.2, hit, 1, 0
1231, 9, T_Scon, T_Scon_DRRR, 418.6, hit, 2, 0
1232, 9, T_Scon, T_Scon_DRRR, 346.0, hit, 2, 0
1233, 9, T_Sinc, T_Sinc_DGLG, 365.5, hit, 1, 0
1234, 9, T_Scon, T_Scon_DRRR, 368.9, hit, 2, 0
1235, 9, T_Sinc, T_Sinc_URRR, 384.4, hit, 2, 0
1236, 9, T_Sinc, T_Sinc_DGLG, 379.8, hit, 1, 0
1237, 9, T_Sinc, T_Sinc_URRR, 343.2, hit, 2, 0
1238, 9, T_Sinc, T_Sinc_DGLG, 282.7, hit, 1, 0
1239, 9, T_Sinc, T_Sinc_DGLG, 330.1, hit, 1, 0
1240, 9, T_Sinc, T_Sinc_DGLG, 381.5, hit, 1, 0
1241, 9, T_Sinc, T_Sinc_URRR, 425.0, hit, 2, 0
1242, 9, T_Sinc, T_Sinc_URRR, 320.4, hit, 2, 0
1243, 9, T_Scon, T_Scon_DRRR, 395.9, hit, 2, 0
1244, 9, T_Sinc, T_Sinc_URRR, 323.3, hit, 2, 0
1245, 9, T_Scon, T_Scon_UGLG, 554.8, hit, 1, 0
1246, 9, T_Sinc, T_Sinc_URRR, 462.2, hit, 2, 0
1247, 9, T_Sinc, T_Sinc_DGLG, 505.6, hit, 1, 0
1248, 9, T_Sinc, T_Sinc_DGLG, 465.0, hit, 1, 0
1249, 9, T_Sinc, T_Sinc_URRR, 548.5, hit, 2, 0
1250, 9, T_Scon, T_Scon_UGLG, 364.0, hit, 1, 0
1251, 9, T_Scon, T_Scon_DRRR, 451.3, hit, 2, 0
1252, 9, T_Sinc, T_Sinc_DGLG, 350.8, hit, 1, 0
1253, 9, T_Sinc, T_Sinc_DGLG, 362.2, hit, 1, 0
1254, 9, T_Scon, T_Scon_DRRR, 353.7, hit, 2, 0
1255, 9, T_Scon, T_Scon_UGLG, 501.1, hit, 1, 0
1256, 9, T_Sinc, T_Sinc_DGLG, 296.5, hit, 1, 0
1257, 9, T_Sinc, T_Sinc_URRR, 568.0, hit, 2, 0
1258, 9, T_Sinc, T_Sinc_DGLG, 359.5, hit, 1, 0
1259, 9, T_Sinc, T_Sinc_DGLG, 418.8, hit, 1, 0
1260, 9, T_Scon, T_Scon_UGLG, 562.3, hit, 1, 0
1261, 9, T_Scon, T_Scon_UGLG, 477.4, hit, 1, 0
1262, 9, T_Scon, T_Scon_DRRR, 520.9, hit, 2, 0
1263, 9, T_Scon, T_Scon_DRRR, 436.3, hit, 2, 0
1264, 9, T_Scon, T_Scon_DRRR, 367.8, hit, 2, 0
1265, 9, T_Scon, T_Scon_DRRR, 291.2, hit, 2, 0
1266, 9, T_Sinc, T_Sinc_DGLG, 558.6, hit, 1, 0
1267, 9, T_Scon, T_Scon_UGLG, 478.1, hit, 1, 0
1268, 9, T_Scon, T_Scon_UGLG, 457.6, hit, 1, 0
1269, 9, T_Scon, T_Scon_UGLG, 340.9, hit, 1, 0
1270, 9, T_Sinc, T_Sinc_URRR, 544.4, hit, 2, 0
1271, 9, T_Sinc, T_Sinc_URRR, 351.8, hit, 2, 0
1272, 9, T_Sinc, T_Sinc_DGLG, 347.3, hit, 1, 0
1273, 9, T_Sinc, T_Sinc_URRR, 474.7, hit, 2, 0
1274, 9, T_Sinc, T_Sinc_DGLG, 342.1, hit, 1, 0
1275, 9, T_Sinc, T_Sinc_DGLG, 393.6, hit, 1, 0
1276, 9, T_Scon, T_Scon_DRRR, 425.1, hit, 2, 0
1277, 9, T_Sinc, T_Sinc_URRR, 456.4, hit, 2, 0
1278, 9, T_Scon, T_Scon_UGLG, 467.9, hit, 1, 0
1279, 9, T_Scon, T_Scon_UGLG, 291.4, hit, 1, 0
1280, 9, T_Sinc, T_Sinc_DGLG, 478.7, hit, 1, 0
1281, 9, T_Scon, T_Scon_DRRR, 638.2, hit, 2, 0
1282, 9, T_Sinc, T_Sinc_URRR, 313.7, incorrect, 1, 1
1283, 9, T_Scon, T_Scon_UGLG, 405.1, hit, 1, 0
1284, 9, T_Sinc, T_Sinc_DGLG, 524.5, hit, 1, 0
1285, 9, T_Scon, T_Scon_DRRR, 451.9, hit, 2, 0
1286, 9, T_Scon, T_Scon_DRRR, 399.4, hit, 2, 0
1287, 9, T_Scon, T_Scon_UGLG, 394.9, hit, 1, 0
1288, 9, T_Scon, T_Scon_DRRR, 454.2, hit, 2, 0
1289, 9, T_Scon, T_Scon_DRRR, 417.7, hit, 2, 0
1290, 9, T_Scon, T_Scon_UGLG, 365.2, hit, 1, 0
1291, 9, T_Sinc, T_Sinc_URRR, 428.6, hit, 2, 0
1292, 9, T_Scon, T_Scon_UGLG, 680.0, hit, 1, 0
1293, 9, T_Sinc, T_Sinc_DGLG, 347.5, hit, 1, 0
1294, 9, T_Scon, T_Scon_UGLG, 382.9, hit, 1, 0
1295, 9, T_Scon, T_Scon_DRRR, 362.4, hit, 2, 0
1296, 9, T_Scon, T_Scon_UGLG, 549.7, hit, 1, 0
