trial_index, block, condition, full_condition_code, RT, response_type, response_key, error_outlier
1, 1, T_Scon, T_Scon_URLR, 633.0, hit, 1, 0
2, 1, T_Scon, T_Scon_DGRG, 436.5, hit, 2, 0
3, 1, T_Scon, T_Scon_URLR, 511.9, hit, 1, 0
4, 1, T_Scon, T_Scon_URLR, 419.2, hit, 1, 0
5, 1, T_Scon, T_Scon_DGRG, 370.7, hit, 2, 0
6, 1, T_Sinc, T_Sinc_UGRG, 806.2, incorrect, 1, 1
7, 1, T_Scon, T_Scon_DGRG, 521.6, hit, 2, 0
8, 1, T_Scon, T_Scon_DGRG, 409.0, hit, 2, 0
9, 1, T_Scon, T_Scon_DGRG, 396.5, hit, 2, 0
10, 1, T_Sinc, T_Sinc_DRLR, 408.0, hit, 1, 0
11, 1, T_Sinc, T_Sinc_UGRG, 439.4, hit, 2, 0
12, 1, T_Sinc, T_Sinc_DRLR, 418.8, hit, 1, 0
13, 1, T_Scon, T_Scon_DGRG, 266.2, hit, 2, 0
14, 1, T_Scon, T_Scon_URLR, 413.7, hit, 1, 0
15, 1, T_Scon, T_Scon_DGRG, 377.1, hit, 2, 0
16, 1, T_Sinc, T_Sinc_UGRG, 500.5, hit, 2, 0
17, 1, T_Scon, T_Scon_URLR, 376.0, hit, 1, 0
18, 1, T_Scon, T_Scon_DGRG, 339.3, hit, 2, 0
19, 1, T_Scon, T_Scon_URLR, 510.8, hit, 1, 0
20, 1, T_Scon, T_Scon_DGRG, 338.3, hit, 2, 0
21, 1, T_Scon, T_Scon_URLR, 381.8, hit, 1, 0
22, 1, T_Scon, T_Scon_URLR, 393.1, hit, 1, 0
23, 1, T_Sinc, T_Sinc_DRLR, 400.6, hit, 1, 0
24, 1, T_Sinc, T_Sinc_DRLR, 356.0, hit, 1, 0
25, 1, T_Scon, T_Scon_URLR, 343.5, hit, 1, 0
26, 1, T_Sinc, T_Sinc_UGRG, 294.9, hit, 2, 0
27, 1, T_Scon, T_Scon_DGRG, 298.3, hit, 2, 0
28, 1, T_Scon, T_Scon_DGRG, 277.8, hit, 2, 0
29, 1, T_Sinc, T_Sinc_DRLR, 405.3, hit, 1, 0
30, 1, T_Scon, T_Scon_URLR, 720.6, hit, 1, 2
31, 1, T_Sinc, T_Sinc_DRLR, 652.1, hit, 1, 0
32, 1, T_Sinc, T_Sinc_DRLR, 399.6, hit, 1, 0
33, 1, T_Scon, T_Scon_URLR, 467.0, hit, 1, 0
34, 1, T_Sinc, T_Sinc_UGRG, 414.5, hit, 2, 0
35, 1, T_Scon, T_Scon_DGRG, 341.8, hit, 2, 0
36, 1, T_Scon, T_Scon_URLR, 325.3, hit, 1, 0
37, 1, T_Scon, T_Scon_DGRG, 812.5, incorrect, 1, 1
38, 1, T_Scon, T_Scon_DGRG, 423.9, hit, 2, 0
39, 1, T_Scon, T_Scon_URLR, 371.3, hit, 1, 0
40, 1, T_Sinc, T_Sinc_UGRG, 630.8, hit, 2, 0
41, 1, T_Sinc, T_Sinc_DRLR, 466.3, hit, 1, 0
42, 1, T_Scon, T_Scon_URLR, 493.6, hit, 1, 0
43, 1, T_Scon, T_Scon_DGRG, 449.1, hit, 2, 0
44, 1, T_Scon, T_Scon_URLR, 428.6, hit, 1, 0
45, 1, T_Scon, T_Scon_URLR, 400.0, hit, 1, 0
46, 1, T_Sinc, T_Sinc_DRLR, 503.4, hit, 1, 0
47, 1, T_Scon, T_Scon_DGRG, 386.9, hit, 2, 0
48, 1, T_Sinc, T_Sinc_DRLR, 358.3, hit, 1, 0
49, 1, T_Scon, T_Scon_URLR, 421.7, hit, 1, 0
50, 1, T_Scon, T_Scon_URLR, 353.1, hit, 1, 0
51, 1, T_Scon, T_Scon_URLR, 388.6, hit, 1, 0
52, 1, T_Scon, T_Scon_URLR, 328.1, hit, 1, 0
53, 1, T_Scon, T_Scon_URLR, 283.5, hit, 1, 0
54, 1, T_Sinc, T_Sinc_UGRG, 442.9, hit, 2, 0
55, 1, T_Scon, T_Scon_URLR, 350.4, hit, 1, 0
56, 1, T_Scon, T_Scon_URLR, 409.8, incorrect, 2, 1
57, 1, T_Scon, T_Scon_URLR, 437.2, hit, 1, 0
58, 1, T_Sinc, T_Sinc_DRLR, 464.7, hit, 1, 0
59, 1, T_Scon, T_Scon_URLR, 316.1, hit, 1, 0
60, 1, T_Scon, T_Scon_DGRG, 359.6, hit, 2, 0
61, 1, T_Sinc, T_Sinc_UGRG, 335.0, hit, 2, 0
62, 1, T_Scon, T_Scon_DGRG, 378.4, hit, 2, 0
63, 1, T_Sinc, T_Sinc_DRLR, 373.9, hit, 1, 0
64, 1, T_Sinc, T_Sinc_UGRG, 441.3, hit, 2, 0
65, 1, T_Sinc, T_Sinc_UGRG, 376.7, hit, 2, 0
66, 1, T_Sinc, T_Sinc_UGRG, 360.2, hit, 2, 0
67, 1, T_Scon, T_Scon_DGRG, 359.6, hit, 2, 0
68, 1, T_Scon, T_Scon_DGRG, 303.1, hit, 2, 0
69, 1, T_Scon, T_Scon_DGRG, 294.5, hit, 2, 0
70, 1, T_Scon, T_Scon_URLR, 321.9, hit, 1, 0
71, 1, T_Scon, T_Scon_DGRG, 345.4, hit, 2, 0
72, 1, T_Scon, T_Scon_URLR, 324.9, hit, 1, 0
73, 1, T_Scon, T_Scon_URLR, 396.0, hit, 1, 0
74, 1, T_Scon, T_Scon_DGRG, 367.4, hit, 2, 0
75, 1, T_Scon, T_Scon_URLR, 378.9, hit, 1, 0
76, 1, T_Scon, T_Scon_URLR, 374.3, hit, 1, 0
77, 1, T_Scon, T_Scon_DGRG, 269.7, hit, 2, 0
78, 1, T_Scon, T_Scon_URLR, 321.2, hit, 1, 0
79, 1, T_Sinc, T_Sinc_UGRG, 424.6, hit, 2, 0
80, 1, T_Sinc, T_Sinc_DRLR, 380.0, hit, 1, 0
81, 1, T_Scon, T_Scon_URLR, 387.5, hit, 1, 0
82, 1, T_Scon, T_Scon_URLR, 498.9, hit, 1, 0
83, 1, T_Scon, T_Scon_DGRG, 378.4, hit, 2, 0
84, 1, T_Scon, T_Scon_URLR, 293.8, hit, 1, 0
85, 1, T_Sinc, T_Sinc_UGRG, 485.2, hit, 2, 0
86, 1, T_Scon, T_Scon_URLR, 352.7, hit, 1, 0
87, 1, T_Scon, T_Scon_URLR, 388.2, hit, 1, 0
88, 1, T_Scon, T_Scon_DGRG, 375.5, hit, 2, 0
89, 1, T_Scon, T_Scon_DGRG, 331.0, hit, 2, 0
90, 1, T_Scon, T_Scon_DGRG, 330.4, hit, 2, 0
91, 1, T_Sinc, T_Sinc_DRLR, 425.9, hit, 1, 0
92, 1, T_Sinc, T_Sinc_DRLR, 397.3, hit, 1, 0
93, 1, T_Scon, T_Scon_URLR, 384.8, incorrect, 2, 1
94, 1, T_Scon, T_Scon_DGRG, 404.2, hit, 2, 0
95, 1, T_Scon, T_Scon_DGRG, 491.7, hit, 2, 0
96, 1, T_Scon, T_Scon_DGRG, 295.0, hit, 2, 0
97, 1, T_Scon, T_Scon_URLR, 362.5, hit, 1, 0
98, 1, T_Scon, T_Scon_DGRG, 294.0, hit, 2, 0
99, 1, T_Scon, T_Scon_URLR, 253.4, hit, 1, 0
100, 1, T_Scon, T_Scon_URLR, 336.8, incorrect, 2, 1
101, 1, T_Scon, T_Scon_DGRG, 528.2, hit, 2, 0
102, 1, T_Scon, T_Scon_DGRG, 407.7, hit, 2, 0
103, 1, T_Scon, T_Scon_URLR, 399.1, hit, 1, 0
104, 1, T_Scon, T_Scon_URLR, 338.5, hit, 1, 0
105, 1, T_Scon, T_Scon_URLR, 346.0, hit, 1, 0
106, 1, T_Scon, T_Scon_URLR, 585.5, hit, 1, 0
107, 1, T_Scon, T_Scon_DGRG, 364.9, hit, 2, 0
108, 1, T_Scon, T_Scon_URLR, 320.3, hit, 1, 0
109, 1, T_Scon, T_Scon_DGRG, 551.5, incorrect, 1, 1
110, 1, T_Sinc, T_Sinc_UGRG, 339.0, hit, 2, 0
111, 1, T_Scon, T_Scon_URLR, 402.3, hit, 1, 0
112, 1, T_Sinc, T_Sinc_DRLR, 473.8, hit, 1, 0
113, 1, T_Scon, T_Scon_DGRG, 613.3, incorrect, 1, 1
114, 1, T_Sinc, T_Sinc_UGRG, 408.6, hit, 2, 0
115, 1, T_Sinc, T_Sinc_DRLR, 460.1, hit, 1, 0
116, 1, T_Scon, T_Scon_URLR, 595.6, hit, 1, 0
117, 1, T_Scon, T_Scon_DGRG, 391.0, hit, 2, 0
118, 1, T_Scon, T_Scon_DGRG, 862.4, hit, 2, 2
119, 1, T_Scon, T_Scon_URLR, 425.8, hit, 1, 0
120, 1, T_Sinc, T_Sinc_UGRG, 401.3, hit, 2, 0
121, 1, T_Scon, T_Scon_DGRG, 388.7, hit, 2, 0
122, 1, T_Scon, T_Scon_DGRG, 360.2, hit, 2, 0
123, 1, T_Scon, T_Scon_DGRG, 363.6, hit, 2, 0
124, 1, T_Scon, T_Scon_DGRG, 383.0, hit, 2, 0
125, 1, T_Scon, T_Scon_URLR, 386.4, hit, 1, 0
126, 1, T_Scon, T_Scon_URLR, 433.9, hit, 1, 0
127, 1, T_Scon, T_Scon_DGRG, 333.4, hit, 2, 0
128, 1, T_Scon, T_Scon_DGRG, 292.8, hit, 2, 0
129, 1, T_Scon, T_Scon_DGRG, 412.2, hit, 2, 0
130, 1, T_Scon, T_Scon_URLR, 367.7, hit, 1, 0
131, 1, T_Scon, T_Scon_URLR, 459.1, hit, 1, 0
132, 1, T_Sinc, T_Sinc_UGRG, 566.5, hit, 2, 0
133, 1, T_Scon, T_Scon_DGRG, 445.9, hit, 2, 0
134, 1, T_Scon, T_Scon_DGRG, 377.4, hit, 2, 0
135, 1, T_Scon, T_Scon_DGRG, 316.9, hit, 2, 0
136, 1, T_Scon, T_Scon_DGRG, 340.3, hit, 2, 0
137, 1, T_Sinc, T_Sinc_UGRG, 499.7, hit, 2, 0
138, 1, T_Scon, T_Scon_DGRG, 283.2, hit, 2, 0
139, 1, T_Scon, T_Scon_DGRG, 302.6, hit, 2, 0
140, 1, T_Scon, T_Scon_URLR, 322.0, hit, 1, 0
141, 1, T_Scon, T_Scon_DGRG, 233.5, hit, 2, 0
142, 1, T_Scon, T_Scon_DGRG, 324.9, hit, 2, 0
143, 1, T_Sinc, T_Sinc_DRLR, 392.3, hit, 1, 0
144, 1, T_Scon, T_Scon_URLR, 563.8, hit, 1, 0
145, 2, T_Scon, T_Scon_URLR, 645.4, hit, 1, 0
146, 2, T_Scon, T_Scon_DGRG, 312.9, hit, 2, 0
147, 2, T_Sinc, T_Sinc_DRLR, 452.4, hit, 1, 0
148, 2, T_Scon, T_Scon_DGRG, 271.7, hit, 2, 0
149, 2, T_Scon, T_Scon_DGRG, 283.1, hit, 2, 0
150, 2, T_Sinc, T_Sinc_DRLR, 354.6, hit, 1, 0
151, 2, T_Sinc, T_Sinc_UGRG, 270.1, hit, 2, 0
152, 2, T_Sinc, T_Sinc_DRLR, 313.4, hit, 1, 0
153, 2, T_Sinc, T_Sinc_UGRG, 372.9, hit, 2, 0
154, 2, T_Scon, T_Scon_URLR, 312.3, hit, 1, 0
155, 2, T_Scon, T_Scon_DGRG, 295.8, hit, 2, 0
156, 2, T_Scon, T_Scon_DGRG, 315.2, hit, 2, 0
157, 2, T_Scon, T_Scon_DGRG, 334.7, hit, 2, 0
158, 2, T_Scon, T_Scon_DGRG, 286.1, hit, 2, 0
159, 2, T_Scon, T_Scon_URLR, 405.5, hit, 1, 0
160, 2, T_Sinc, T_Sinc_UGRG, 353.0, hit, 2, 0
161, 2, T_Sinc, T_Sinc_DRLR, 364.4, hit, 1, 0
162, 2, T_Scon, T_Scon_URLR, 391.9, hit, 1, 0
163, 2, T_Sinc, T_Sinc_UGRG, 295.3, hit, 2, 0
164, 2, T_Scon, T_Scon_URLR, 370.7, hit, 1, 0
165, 2, T_Scon, T_Scon_URLR, 370.2, hit, 1, 0
166, 2, T_Scon, T_Scon_URLR, 373.6, hit, 1, 0
167, 2, T_Scon, T_Scon_DGRG, 265.0, hit, 2, 0
168, 2, T_Scon, T_Scon_DGRG, 284.5, hit, 2, 0
169, 2, T_Scon, T_Scon_DGRG, 296.0, hit, 2, 0
170, 2, T_Scon, T_Scon_DGRG, 323.3, hit, 2, 0
171, 2, T_Scon, T_Scon_DGRG, 290.8, hit, 2, 0
172, 2, T_Scon, T_Scon_DGRG, 270.2, hit, 2, 0
173, 2, T_Sinc, T_Sinc_UGRG, 325.7, incorrect, 1, 1
174, 2, T_Scon, T_Scon_URLR, 577.1, hit, 1, 0
175, 2, T_Scon, T_Scon_DGRG, 364.5, hit, 2, 0
176, 2, T_Sinc, T_Sinc_UGRG, 436.0, hit, 2, 0
177, 2, T_Scon, T_Scon_URLR, 423.4, hit, 1, 0
178, 2, T_Scon, T_Scon_DGRG, 482.9, hit, 2, 0
179, 2, T_Scon, T_Scon_URLR, 590.3, hit, 1, 0
180, 2, T_Scon, T_Scon_DGRG, 321.7, hit, 2, 0
181, 2, T_Sinc, T_Sinc_DRLR, 625.0, hit, 1, 0
182, 2, T_Scon, T_Scon_DGRG, 428.3, hit, 2, 0
183, 2, T_Scon, T_Scon_URLR, 463.8, hit, 1, 0
184, 2, T_Sinc, T_Sinc_DRLR, 455.3, hit, 1, 0
185, 2, T_Scon, T_Scon_URLR, 434.6, hit, 1, 0
186, 2, T_Scon, T_Scon_URLR, 310.0, incorrect, 2, 1
187, 2, T_Scon, T_Scon_DGRG, 377.5, hit, 2, 0
188, 2, T_Scon, T_Scon_DGRG, 429.0, hit, 2, 0
189, 2, T_Scon, T_Scon_DGRG, 548.3, hit, 2, 0
190, 2, T_Sinc, T_Sinc_DRLR, 439.8, hit, 1, 0
191, 2, T_Scon, T_Scon_URLR, 423.3, hit, 1, 0
192, 2, T_Scon, T_Scon_URLR, 358.7, hit, 1, 0
193, 2, T_Sinc, T_Sinc_UGRG, 482.1, hit, 2, 0
194, 2, T_Scon, T_Scon_DGRG, 357.6, hit, 2, 0
195, 2, T_Sinc, T_Sinc_DRLR, 421.0, hit, 1, 0
196, 2, T_Sinc, T_Sinc_UGRG, 396.5, hit, 2, 0
197, 2, T_Scon, T_Scon_DGRG, 503.9, hit, 2, 0
198, 2, T_Scon, T_Scon_DGRG, 331.3, hit, 2, 0
199, 2, T_Scon, T_Scon_URLR, 410.8, hit, 1, 0
200, 2, T_Scon, T_Scon_DGRG, 578.2, hit, 2, 0
201, 2, T_Scon, T_Scon_URLR, 389.6, hit, 1, 0
202, 2, T_Scon, T_Scon_URLR, 381.1, hit, 1, 0
203, 2, T_Sinc, T_Sinc_DRLR, 404.6, hit, 1, 0
204, 2, T_Scon, T_Scon_DGRG, 415.9, hit, 2, 0
205, 2, T_Scon, T_Scon_URLR, 431.4, hit, 1, 0
206, 2, T_Scon, T_Scon_URLR, 362.9, hit, 1, 0
207, 2, T_Scon, T_Scon_DGRG, 406.3, hit, 2, 0
208, 2, T_Scon, T_Scon_URLR, 521.8, hit, 1, 0
209, 2, T_Scon, T_Scon_URLR, 493.1, hit, 1, 0
210, 2, T_Scon, T_Scon_DGRG, 392.6, hit, 2, 0
211, 2, T_Scon, T_Scon_DGRG, 516.1, hit, 2, 0
212, 2, T_Scon, T_Scon_DGRG, 355.5, hit, 2, 0
213, 2, T_Scon, T_Scon_DGRG, 378.9, hit, 2, 0
214, 2, T_Sinc, T_Sinc_UGRG, 390.3, hit, 2, 0
215, 2, T_Scon, T_Scon_DGRG, 289.8, hit, 2, 0
216, 2, T_Scon, T_Scon_URLR, 525.3, hit, 1, 0
217, 2, T_Scon, T_Scon_URLR, 524.4, hit, 1, 0
218, 2, T_Scon, T_Scon_URLR, 439.8, hit, 1, 0
219, 2, T_Scon, T_Scon_DGRG, 427.3, hit, 2, 0
220, 2, T_Scon, T_Scon_URLR, 622.7, hit, 1, 0
221, 2, T_Scon, T_Scon_URLR, 418.1, hit, 1, 0
222, 2, T_Scon, T_Scon_URLR, 477.6, hit, 1, 0
223, 2, T_Sinc, T_Sinc_DRLR, 513.1, hit, 1, 0
224, 2, T_Scon, T_Scon_URLR, 356.4, hit, 1, 0
225, 2, T_Scon, T_Scon_URLR, 367.9, hit, 1, 0
226, 2, T_Scon, T_Scon_URLR, 363.4, hit, 1, 0
227, 2, T_Sinc, T_Sinc_UGRG, 506.8, hit, 2, 0
228, 2, T_Sinc, T_Sinc_UGRG, 294.2, hit, 2, 0
229, 2, T_Scon, T_Scon_URLR, 353.6, hit, 1, 0
230, 2, T_Scon, T_Scon_URLR, 381.1, hit, 1, 0
231, 2, T_Sinc, T_Sinc_DRLR, 508.6, hit, 1, 0
232, 2, T_Scon, T_Scon_DGRG, 355.9, hit, 2, 0
233, 2, T_Scon, T_Scon_URLR, 391.4, hit, 1, 0
234, 2, T_Scon, T_Scon_URLR, 378.9, hit, 1, 0
235, 2, T_Scon, T_Scon_DGRG, 398.3, hit, 2, 0
236, 2, T_Scon, T_Scon_URLR, 489.7, hit, 1, 0
237, 2, T_Scon, T_Scon_DGRG, 373.2, hit, 2, 0
238, 2, T_Scon, T_Scon_URLR, 356.6, hit, 1, 0
239, 2, T_Sinc, T_Sinc_DRLR, 552.1, hit, 1, 0
240, 2, T_Scon, T_Scon_URLR, 471.5, hit, 1, 0
241, 2, T_Scon, T_Scon_DGRG, 410.9, hit, 2, 0
242, 2, T_Scon, T_Scon_URLR, 450.4, hit, 1, 0
243, 2, T_Sinc, T_Sinc_DRLR, 401.7, hit, 1, 0
244, 2, T_Sinc, T_Sinc_DRLR, 333.2, hit, 1, 0
245, 2, T_Scon, T_Scon_DGRG, 396.7, hit, 2, 0
246, 2, T_Sinc, T_Sinc_UGRG, 376.1, incorrect, 1, 1
247, 2, T_Scon, T_Scon_DGRG, 355.5, hit, 2, 0
248, 2, T_Scon, T_Scon_URLR, 647.0, hit, 1, 0
249, 2, T_Scon, T_Scon_DGRG, 394.4, hit, 2, 0
250, 2, T_Scon, T_Scon_DGRG, 357.8, hit, 2, 0
251, 2, T_Scon, T_Scon_URLR, 493.3, hit, 1, 0
252, 2, T_Sinc, T_Sinc_DRLR, 524.7, hit, 1, 0
253, 2, T_Scon, T_Scon_URLR, 515.9, hit, 1, 0
254, 2, T_Scon, T_Scon_URLR, 395.3, hit, 1, 0
255, 2, T_Sinc, T_Sinc_DRLR, 430.8, hit, 1, 0
256, 2, T_Scon, T_Scon_URLR, 470.2, hit, 1, 0
257, 2, T_Scon, T_Scon_URLR, 377.6, hit, 1, 0
258, 2, T_Sinc, T_Sinc_UGRG, 369.1, hit, 2, 0
259, 2, T_Scon, T_Scon_URLR, 572.5, hit, 1, 0
260, 2, T_Scon, T_Scon_URLR, 407.9, hit, 1, 0
261, 2, T_Scon, T_Scon_DGRG, 543.4, hit, 2, 0
262, 2, T_Scon, T_Scon_DGRG, 478.8, hit, 2, 0
263, 2, T_Scon, T_Scon_URLR, 406.3, hit, 1, 0
264, 2, T_Sinc, T_Sinc_UGRG, 489.6, hit, 2, 0
265, 2, T_Sinc, T_Sinc_UGRG, 381.1, hit, 2, 0
266, 2, T_Scon, T_Scon_DGRG, 352.6, hit, 2, 0
267, 2, T_Scon, T_Scon_URLR, 360.0, hit, 1, 0
268, 2, T_Scon, T_Scon_URLR, 363.5, hit, 1, 0
269, 2, T_Scon, T_Scon_DGRG, 402.9, hit, 2, 0
270, 2, T_Scon, T_Scon_URLR, 378.3, hit, 1, 0
271, 2, T_Sinc, T_Sinc_UGRG, 509.8, hit, 2, 0
272, 2, T_Sinc, T_Sinc_DRLR, 493.2, hit, 1, 0
273, 2, T_Scon, T_Scon_DGRG, 844.6, hit, 2, 2
274, 2, T_Sinc, T_Sinc_UGRG, 376.1, hit, 2, 0
275, 2, T_Scon, T_Scon_DGRG, 419.6, hit, 2, 0
276, 2, T_Scon, T_Scon_URLR, 398.9, hit, 1, 0
277, 2, T_Scon, T_Scon_URLR, 406.4, hit, 1, 0
278, 2, T_Scon, T_Scon_DGRG, 545.8, hit, 2, 0
279, 2, T_Sinc, T_Sinc_UGRG, 429.2, hit, 2, 0
280, 2, T_Scon, T_Scon_DGRG, 324.7, hit, 2, 0
281, 2, T_Scon, T_Scon_URLR, 328.1, hit, 1, 0
282, 2, T_Scon, T_Scon_DGRG, 459.6, hit, 2, 0
283, 2, T_Scon, T_Scon_DGRG, 395.0, hit, 2, 0
284, 2, T_Sinc, T_Sinc_DRLR, 422.4, hit, 1, 0
285, 2, T_Scon, T_Scon_DGRG, 721.9, hit, 2, 2
286, 2, T_Scon, T_Scon_DGRG, 289.3, hit, 2, 0
287, 2, T_Scon, T_Scon_DGRG, 252.7, hit, 2, 0
288, 2, T_Scon, T_Scon_DGRG, 272.2, hit, 2, 0
289, 3, T_Scon, T_Scon_DGRG, 513.4, hit, 2, 0
290, 3, T_Sinc, T_Sinc_UGRG, 348.7, hit, 2, 0
291, 3, T_Scon, T_Scon_DGRG, 288.2, hit, 2, 0
292, 3, T_Sinc, T_Sinc_UGRG, 307.6, hit, 2, 0
293, 3, T_Scon, T_Scon_DGRG, 299.0, hit, 2, 0
294, 3, T_Sinc, T_Sinc_DRLR, 342.5, hit, 1, 0
295, 3, T_Sinc, T_Sinc_DRLR, 537.9, hit, 1, 0
296, 3, T_Scon, T_Scon_DGRG, 317.4, hit, 2, 0
297, 3, T_Sinc, T_Sinc_UGRG, 376.8, hit, 2, 0
298, 3, T_Scon, T_Scon_URLR, 408.3, hit, 1, 0
299, 3, T_Sinc, T_Sinc_DRLR, 479.7, hit, 1, 0
300, 3, T_Scon, T_Scon_URLR, 323.1, hit, 1, 0
301, 3, T_Scon, T_Scon_DGRG, 386.5, hit, 2, 0
302, 3, T_Scon, T_Scon_URLR, 374.0, hit, 1, 0
303, 3, T_Scon, T_Scon_DGRG, 405.5, hit, 2, 0
304, 3, T_Scon, T_Scon_DGRG, 344.8, hit, 2, 0
305, 3, T_Sinc, T_Sinc_DRLR, 392.3, hit, 1, 0
306, 3, T_Scon, T_Scon_URLR, 331.8, hit, 1, 0
307, 3, T_Sinc, T_Sinc_UGRG, 471.1, hit, 2, 0
308, 3, T_Scon, T_Scon_URLR, 594.6, hit, 1, 0
309, 3, T_Scon, T_Scon_DGRG, 402.1, hit, 2, 0
310, 3, T_Scon, T_Scon_DGRG, 473.4, hit, 2, 0
311, 3, T_Scon, T_Scon_URLR, 304.9, hit, 1, 0
312, 3, T_Scon, T_Scon_DGRG, 272.3, hit, 2, 0
313, 3, T_Sinc, T_Sinc_UGRG, 495.8, hit, 2, 0
314, 3, T_Scon, T_Scon_URLR, 367.2, hit, 1, 0
315, 3, T_Scon, T_Scon_URLR, 430.6, hit, 1, 0
316, 3, T_Scon, T_Scon_URLR, 386.1, hit, 1, 0
317, 3, T_Scon, T_Scon_URLR, 381.5, hit, 1, 0
318, 3, T_Sinc, T_Sinc_DRLR, 344.9, incorrect, 2, 1
319, 3, T_Scon, T_Scon_URLR, 396.4, hit, 1, 0
320, 3, T_Scon, T_Scon_URLR, 383.9, hit, 1, 0
321, 3, T_Sinc, T_Sinc_UGRG, 487.3, hit, 2, 0
322, 3, T_Scon, T_Scon_URLR, 602.7, hit, 1, 0
323, 3, T_Sinc, T_Sinc_UGRG, 566.1, hit, 2, 0
324, 3, T_Scon, T_Scon_DGRG, 397.6, hit, 2, 0
325, 3, T_Scon, T_Scon_URLR, 452.9, hit, 1, 0
326, 3, T_Scon, T_Scon_DGRG, 344.2, hit, 2, 0
327, 3, T_Sinc, T_Sinc_DRLR, 555.7, hit, 1, 0
328, 3, T_Scon, T_Scon_URLR, 419.1, hit, 1, 0
329, 3, T_Scon, T_Scon_DGRG, 294.6, hit, 2, 0
330, 3, T_Sinc, T_Sinc_UGRG, 290.0, incorrect, 1, 1
331, 3, T_Scon, T_Scon_URLR, 481.4, hit, 1, 0
332, 3, T_Scon, T_Scon_DGRG, 308.9, hit, 2, 0
333, 3, T_Scon, T_Scon_DGRG, 296.3, hit, 2, 0
334, 3, T_Sinc, T_Sinc_DRLR, 379.7, hit, 1, 0
335, 3, T_Scon, T_Scon_DGRG, 479.2, hit, 2, 0
336, 3, T_Scon, T_Scon_DGRG, 274.6, hit, 2, 0
337, 3, T_Scon, T_Scon_URLR, 390.1, hit, 1, 0
338, 3, T_Sinc, T_Sinc_UGRG, 481.4, hit, 2, 0
339, 3, T_Scon, T_Scon_URLR, 428.9, hit, 1, 0
340, 3, T_Scon, T_Scon_DGRG, 360.4, hit, 2, 0
341, 3, T_Scon, T_Scon_URLR, 367.8, hit, 1, 0
342, 3, T_Scon, T_Scon_DGRG, 395.2, hit, 2, 0
343, 3, T_Scon, T_Scon_DGRG, 274.7, hit, 2, 0
344, 3, T_Scon, T_Scon_URLR, 310.1, hit, 1, 0
345, 3, T_Scon, T_Scon_URLR, 393.6, hit, 1, 0
346, 3, T_Scon, T_Scon_URLR, 421.0, hit, 1, 0
347, 3, T_Scon, T_Scon_URLR, 352.4, hit, 1, 0
348, 3, T_Sinc, T_Sinc_UGRG, 443.9, hit, 2, 0
349, 3, T_Scon, T_Scon_DGRG, 351.3, hit, 2, 0
350, 3, T_Scon, T_Scon_DGRG, 390.7, hit, 2, 0
351, 3, T_Scon, T_Scon_DGRG, 290.2, hit, 2, 0
352, 3, T_Scon, T_Scon_DGRG, 313.7, hit, 2, 0
353, 3, T_Scon, T_Scon_DGRG, 373.0, hit, 2, 0
354, 3, T_Scon, T_Scon_URLR, 332.5, hit, 1, 0
355, 3, T_Sinc, T_Sinc_DRLR, 295.9, incorrect, 2, 1
356, 3, T_Scon, T_Scon_URLR, 355.4, hit, 1, 0
357, 3, T_Sinc, T_Sinc_UGRG, 470.8, hit, 2, 0
358, 3, T_Scon, T_Scon_URLR, 394.2, hit, 1, 0
359, 3, T_Scon, T_Scon_DGRG, 397.7, hit, 2, 0
360, 3, T_Sinc, T_Sinc_UGRG, 349.2, incorrect, 1, 1
361, 3, T_Sinc, T_Sinc_DRLR, 620.3, hit, 1, 0
362, 3, T_Scon, T_Scon_URLR, 407.7, hit, 1, 0
363, 3, T_Scon, T_Scon_URLR, 363.2, hit, 1, 0
364, 3, T_Scon, T_Scon_URLR, 350.5, hit, 1, 0
365, 3, T_Sinc, T_Sinc_DRLR, 370.0, hit, 1, 0
366, 3, T_Scon, T_Scon_DGRG, 721.5, hit, 2, 2
367, 3, T_Scon, T_Scon_DGRG, 332.9, hit, 2, 0
368, 3, T_Scon, T_Scon_DGRG, 312.3, hit, 2, 0
369, 3, T_Scon, T_Scon_DGRG, 303.8, hit, 2, 0
370, 3, T_Scon, T_Scon_DGRG, 283.2, hit, 2, 0
371, 3, T_Sinc, T_Sinc_DRLR, 454.7, hit, 1, 0
372, 3, T_Scon, T_Scon_DGRG, 386.2, hit, 2, 0
373, 3, T_Scon, T_Scon_URLR, 525.5, hit, 1, 0
374, 3, T_Scon, T_Scon_DGRG, 301.0, hit, 2, 0
375, 3, T_Sinc, T_Sinc_DRLR, 364.5, incorrect, 2, 1
376, 3, T_Scon, T_Scon_URLR, 491.8, hit, 1, 0
377, 3, T_Scon, T_Scon_URLR, 387.3, hit, 1, 0
378, 3, T_Scon, T_Scon_URLR, 386.7, hit, 1, 0
379, 3, T_Scon, T_Scon_DGRG, 390.2, hit, 2, 0
380, 3, T_Scon, T_Scon_URLR, 529.6, hit, 1, 0
381, 3, T_Sinc, T_Sinc_UGRG, 341.0, hit, 2, 0
382, 3, T_Scon, T_Scon_DGRG, 1008.5, hit, 2, 2
383, 3, T_Scon, T_Scon_URLR, 396.0, hit, 1, 0
384, 3, T_Sinc, T_Sinc_UGRG, 531.3, hit, 2, 0
385, 3, T_Scon, T_Scon_URLR, 498.8, hit, 1, 0
386, 3, T_Scon, T_Scon_DGRG, 478.3, hit, 2, 0
387, 3, T_Scon, T_Scon_DGRG, 449.7, hit, 2, 0
388, 3, T_Scon, T_Scon_URLR, 409.1, hit, 1, 0
389, 3, T_Scon, T_Scon_DGRG, 344.6, hit, 2, 0
390, 3, T_Scon, T_Scon_URLR, 360.0, hit, 1, 0
391, 3, T_Scon, T_Scon_DGRG, 379.5, hit, 2, 0
392, 3, T_Scon, T_Scon_URLR, 390.8, hit, 1, 0
393, 3, T_Sinc, T_Sinc_DRLR, 470.3, hit, 1, 0
394, 3, T_Scon, T_Scon_DGRG, 441.8, hit, 2, 0
395, 3, T_Scon, T_Scon_DGRG, 421.1, hit, 2, 0
396, 3, T_Sinc, T_Sinc_DRLR, 400.6, hit, 1, 0
397, 3, T_Scon, T_Scon_URLR, 443.9, hit, 1, 0
398, 3, T_Scon, T_Scon_DGRG, 679.3, hit, 2, 0
399, 3, T_Sinc, T_Sinc_UGRG, 438.6, hit, 2, 0
400, 3, T_Scon, T_Scon_DGRG, 370.1, hit, 2, 0
401, 3, T_Scon, T_Scon_URLR, 365.6, hit, 1, 0
402, 3, T_Scon, T_Scon_DGRG, 356.9, hit, 2, 0
403, 3, T_Scon, T_Scon_URLR, 376.4, hit, 1, 0
404, 3, T_Scon, T_Scon_DGRG, 307.9, hit, 2, 0
405, 3, T_Scon, T_Scon_URLR, 303.3, hit, 1, 0
406, 3, T_Scon, T_Scon_DGRG, 346.7, hit, 2, 0
407, 3, T_Scon, T_Scon_URLR, 454.1, hit, 1, 0
408, 3, T_Sinc, T_Sinc_DRLR, 609.6, hit, 1, 0
409, 3, T_Scon, T_Scon_DGRG, 293.1, hit, 2, 0
410, 3, T_Scon, T_Scon_URLR, 340.4, hit, 1, 0
411, 3, T_Scon, T_Scon_URLR, 347.9, hit, 1, 0
412, 3, T_Scon, T_Scon_URLR, 359.4, hit, 1, 0
413, 3, T_Sinc, T_Sinc_DRLR, 482.7, hit, 1, 0
414, 3, T_Sinc, T_Sinc_UGRG, 470.2, hit, 2, 0
415, 3, T_Scon, T_Scon_DGRG, 585.7, hit, 2, 0
416, 3, T_Scon, T_Scon_DGRG, 353.1, hit, 2, 0
417, 3, T_Scon, T_Scon_DGRG, 316.5, hit, 2, 0
418, 3, T_Scon, T_Scon_URLR, 352.0, hit, 1, 0
419, 3, T_Sinc, T_Sinc_DRLR, 339.4, hit, 1, 0
420, 3, T_Sinc, T_Sinc_UGRG, 422.9, hit, 2, 0
421, 3, T_Scon, T_Scon_URLR, 370.3, hit, 1, 0
422, 3, T_Scon, T_Scon_DGRG, 437.7, hit, 2, 0
423, 3, T_Scon, T_Scon_DGRG, 365.2, hit, 2, 0
424, 3, T_Scon, T_Scon_URLR, 316.6, hit, 1, 0
425, 3, T_Scon, T_Scon_DGRG, 348.0, hit, 2, 0
426, 3, T_Scon, T_Scon_URLR, 323.5, hit, 1, 0
427, 3, T_Sinc, T_Sinc_DRLR, 367.0, hit, 1, 0
428, 3, T_Sinc, T_Sinc_UGRG, 294.3, hit, 2, 0
429, 3, T_Scon, T_Scon_DGRG, 385.8, hit, 2, 0
430, 3, T_Scon, T_Scon_URLR, 317.2, hit, 1, 0
431, 3, T_Scon, T_Scon_URLR, 392.7, hit, 1, 0
432, 3, T_Scon, T_Scon_URLR, 324.2, hit, 1, 0
433, 4, T_Sinc, T_Sinc_UGRG, 462.7, hit, 2, 0
434, 4, T_Scon, T_Scon_URLR, 342.2, hit, 1, 0
435, 4, T_Scon, T_Scon_URLR, 345.5, hit, 1, 0
436, 4, T_Sinc, T_Sinc_DRLR, 373.0, incorrect, 2, 1
437, 4, T_Scon, T_Scon_URLR, 456.5, hit, 1, 0
438, 4, T_Sinc, T_Sinc_DRLR, 416.0, hit, 1, 0
439, 4, T_Scon, T_Scon_URLR, 395.3, hit, 1, 0
440, 4, T_Sinc, T_Sinc_UGRG, 682.8, hit, 2, 0
441, 4, T_Sinc, T_Sinc_UGRG, 374.2, hit, 2, 0
442, 4, T_Sinc, T_Sinc_DRLR, 369.7, hit, 1, 0
443, 4, T_Sinc, T_Sinc_DRLR, 373.0, hit, 1, 0
444, 4, T_Sinc, T_Sinc_UGRG, 408.5, hit, 2, 0
445, 4, T_Sinc, T_Sinc_UGRG, 352.0, hit, 2, 0
446, 4, T_Sinc, T_Sinc_DRLR, 343.4, hit, 1, 0
447, 4, T_Sinc, T_Sinc_UGRG, 402.9, incorrect, 1, 1
448, 4, T_Scon, T_Scon_URLR, 462.3, hit, 1, 0
449, 4, T_Sinc, T_Sinc_UGRG, 473.7, hit, 2, 0
450, 4, T_Sinc, T_Sinc_DRLR, 417.2, hit, 1, 0
451, 4, T_Sinc, T_Sinc_DRLR, 452.6, hit, 1, 0
452, 4, T_Sinc, T_Sinc_UGRG, 464.0, hit, 2, 0
453, 4, T_Sinc, T_Sinc_DRLR, 439.5, hit, 1, 0
454, 4, T_Scon, T_Scon_URLR, 410.9, incorrect, 2, 1
455, 4, T_Sinc, T_Sinc_UGRG, 366.3, hit, 2, 0
456, 4, T_Sinc, T_Sinc_DRLR, 457.8, hit, 1, 0
457, 4, T_Sinc, T_Sinc_DRLR, 397.2, hit, 1, 0
458, 4, T_Sinc, T_Sinc_UGRG, 404.6, hit, 2, 0
459, 4, T_Sinc, T_Sinc_UGRG, 448.1, hit, 2, 0
460, 4, T_Scon, T_Scon_URLR, 395.5, hit, 1, 0
461, 4, T_Sinc, T_Sinc_UGRG, 447.0, hit, 2, 0
462, 4, T_Sinc, T_Sinc_DRLR, 410.4, hit, 1, 0
463, 4, T_Scon, T_Scon_DGRG, 565.8, hit, 2, 0
464, 4, T_Sinc, T_Sinc_UGRG, 405.3, hit, 2, 0
465, 4, T_Sinc, T_Sinc_UGRG, 352.8, hit, 2, 0
466, 4, T_Sinc, T_Sinc_DRLR, 388.1, hit, 1, 0
467, 4, T_Sinc, T_Sinc_UGRG, 407.6, hit, 2, 0
468, 4, T_Scon, T_Scon_DGRG, 395.1, hit, 2, 0
469, 4, T_Sinc, T_Sinc_UGRG, 614.2, hit, 2, 0
470, 4, T_Scon, T_Scon_DGRG, 525.6, hit, 2, 0
471, 4, T_Scon, T_Scon_DGRG, 437.1, hit, 2, 0
472, 4, T_Sinc, T_Sinc_UGRG, 456.5, hit, 2, 0
473, 4, T_Sinc, T_Sinc_DRLR, 423.9, hit, 1, 0
474, 4, T_Scon, T_Scon_DGRG, 415.4, hit, 2, 0
475, 4, T_Sinc, T_Sinc_UGRG, 450.8, hit, 2, 0
476, 4, T_Scon, T_Scon_URLR, 390.2, hit, 1, 0
477, 4, T_Sinc, T_Sinc_DRLR, 425.7, hit, 1, 0
478, 4, T_Sinc, T_Sinc_UGRG, 461.1, hit, 2, 0
479, 4, T_Sinc, T_Sinc_DRLR, 592.6, hit, 1, 0
480, 4, T_Scon, T_Scon_DGRG, 688.0, hit, 2, 0
481, 4, T_Sinc, T_Sinc_UGRG, 395.4, hit, 2, 0
482, 4, T_Scon, T_Scon_DGRG, 322.9, hit, 2, 0
483, 4, T_Scon, T_Scon_URLR, 358.4, hit, 1, 0
484, 4, T_Sinc, T_Sinc_UGRG, 301.7, hit, 2, 0
485, 4, T_Scon, T_Scon_DGRG, 553.2, hit, 2, 0
486, 4, T_Scon, T_Scon_DGRG, 404.7, hit, 2, 0
487, 4, T_Sinc, T_Sinc_DRLR, 348.1, hit, 1, 0
488, 4, T_Sinc, T_Sinc_DRLR, 719.5, hit, 1, 2
489, 4, T_Sinc, T_Sinc_UGRG, 387.0, hit, 2, 0
490, 4, T_Sinc, T_Sinc_DRLR, 266.4, hit, 1, 0
491, 4, T_Sinc, T_Sinc_UGRG, 297.8, hit, 2, 0
492, 4, T_Sinc, T_Sinc_UGRG, 397.2, hit, 2, 0
493, 4, T_Sinc, T_Sinc_DRLR, 336.7, hit, 1, 0
494, 4, T_Sinc, T_Sinc_DRLR, 276.2, hit, 1, 0
495, 4, T_Sinc, T_Sinc_UGRG, 527.6, hit, 2, 0
496, 4, T_Sinc, T_Sinc_UGRG, 279.0, hit, 2, 0
497, 4, T_Sinc, T_Sinc_DRLR, 378.5, hit, 1, 0
498, 4, T_Scon, T_Scon_URLR, 565.9, hit, 1, 0
499, 4, T_Sinc, T_Sinc_DRLR, 357.3, incorrect, 2, 1
500, 4, T_Sinc, T_Sinc_UGRG, 388.8, hit, 2, 0
501, 4, T_Sinc, T_Sinc_DRLR, 472.2, hit, 1, 0
502, 4, T_Sinc, T_Sinc_DRLR, 379.7, hit, 1, 0
503, 4, T_Sinc, T_Sinc_DRLR, 355.0, hit, 1, 0
504, 4, T_Sinc, T_Sinc_DRLR, 342.5, hit, 1, 0
505, 4, T_Sinc, T_Sinc_DRLR, 565.7, hit, 1, 0
506, 4, T_Sinc, T_Sinc_DRLR, 369.2, hit, 1, 0
507, 4, T_Sinc, T_Sinc_DRLR, 308.5, hit, 1, 0
508, 4, T_Sinc, T_Sinc_UGRG, 400.0, hit, 2, 0
509, 4, T_Sinc, T_Sinc_DRLR, 403.5, hit, 1, 0
510, 4, T_Sinc, T_Sinc_DRLR, 390.8, hit, 1, 0
511, 4, T_Sinc, T_Sinc_UGRG, 418.3, hit, 2, 0
512, 4, T_Sinc, T_Sinc_DRLR, 361.8, hit, 1, 0
513, 4, T_Sinc, T_Sinc_DRLR, 389.2, hit, 1, 0
514, 4, T_Sinc, T_Sinc_UGRG, 328.6, hit, 2, 0
515, 4, T_Sinc, T_Sinc_DRLR, 380.1, hit, 1, 0
516, 4, T_Sinc, T_Sinc_DRLR, 399.5, hit, 1, 0
517, 4, T_Sinc, T_Sinc_DRLR, 403.0, hit, 1, 0
518, 4, T_Sinc, T_Sinc_DRLR, 362.3, hit, 1, 0
519, 4, T_Sinc, T_Sinc_UGRG, 309.8, hit, 2, 0
520, 4, T_Sinc, T_Sinc_DRLR, 421.3, hit, 1, 0
521, 4, T_Sinc, T_Sinc_DRLR, 340.7, hit, 1, 0
522, 4, T_Scon, T_Scon_DGRG, 608.1, hit, 2, 0
523, 4, T_Sinc, T_Sinc_DRLR, 511.6, hit, 1, 0
524, 4, T_Sinc, T_Sinc_UGRG, 367.0, hit, 2, 0
525, 4, T_Sinc, T_Sinc_UGRG, 434.5, hit, 2, 0
526, 4, T_Sinc, T_Sinc_UGRG, 381.9, hit, 2, 0
527, 4, T_Sinc, T_Sinc_UGRG, 469.3, hit, 2, 0
528, 4, T_Sinc, T_Sinc_DRLR, 432.8, hit, 1, 0
529, 4, T_Scon, T_Scon_DGRG, 440.1, hit, 2, 0
530, 4, T_Sinc, T_Sinc_UGRG, 539.6, hit, 2, 0
531, 4, T_Scon, T_Scon_URLR, 447.1, hit, 1, 0
532, 4, T_Sinc, T_Sinc_UGRG, 694.5, hit, 2, 0
533, 4, T_Sinc, T_Sinc_UGRG, 385.9, hit, 2, 0
534, 4, T_Sinc, T_Sinc_UGRG, 365.4, hit, 2, 0
535, 4, T_Sinc, T_Sinc_UGRG, 348.8, hit, 2, 0
536, 4, T_Scon, T_Scon_DGRG, 352.2, hit, 2, 0
537, 4, T_Sinc, T_Sinc_DRLR, 355.7, hit, 1, 0
538, 4, T_Scon, T_Scon_URLR, 427.1, hit, 1, 0
539, 4, T_Sinc, T_Sinc_UGRG, 446.6, hit, 2, 0
540, 4, T_Scon, T_Scon_URLR, 362.1, hit, 1, 0
541, 4, T_Sinc, T_Sinc_UGRG, 681.2, incorrect, 1, 1
542, 4, T_Scon, T_Scon_DGRG, 556.6, hit, 2, 0
543, 4, T_Sinc, T_Sinc_DRLR, 456.1, hit, 1, 0
544, 4, T_Sinc, T_Sinc_DRLR, 727.5, hit, 1, 2
545, 4, T_Scon, T_Scon_DGRG, 426.9, hit, 2, 0
546, 4, T_Scon, T_Scon_DGRG, 374.4, hit, 2, 0
547, 4, T_Sinc, T_Sinc_UGRG, 369.8, hit, 2, 0
548, 4, T_Sinc, T_Sinc_DRLR, 329.2, hit, 1, 0
549, 4, T_Sinc, T_Sinc_UGRG, 292.7, hit, 2, 0
550, 4, T_Sinc, T_Sinc_UGRG, 340.1, hit, 2, 0
551, 4, T_Sinc, T_Sinc_UGRG, 407.6, hit, 2, 0
552, 4, T_Scon, T_Scon_DGRG, 463.0, hit, 2, 0
553, 4, T_Sinc, T_Sinc_DRLR, 406.4, hit, 1, 0
554, 4, T_Sinc, T_Sinc_DRLR, 469.9, hit, 1, 0
555, 4, T_Scon, T_Scon_URLR, 397.3, hit, 1, 0
556, 4, T_Sinc, T_Sinc_DRLR, 416.7, hit, 1, 0
557, 4, T_Sinc, T_Sinc_DRLR, 380.2, hit, 1, 0
558, 4, T_Sinc, T_Sinc_UGRG, 343.7, hit, 2, 0
559, 4, T_Sinc, T_Sinc_UGRG, 391.0, hit, 2, 0
560, 4, T_Scon, T_Scon_DGRG, 498.5, hit, 2, 0
561, 4, T_Sinc, T_Sinc_UGRG, 357.9, hit, 2, 0
562, 4, T_Sinc, T_Sinc_UGRG, 293.3, hit, 2, 0
563, 4, T_Sinc, T_Sinc_DRLR, 384.8, hit, 1, 0
564, 4, T_Scon, T_Scon_URLR, 504.2, hit, 1, 0
565, 4, T_Sinc, T_Sinc_UGRG, 427.7, hit, 2, 0
566, 4, T_Sinc, T_Sinc_DRLR, 475.1, hit, 1, 0
567, 4, T_Scon, T_Scon_URLR, 454.5, hit, 1, 0
568, 4, T_Sinc, T_Sinc_UGRG, 426.0, hit, 2, 0
569, 4, T_Sinc, T_Sinc_DRLR, 405.5, hit, 1, 0
570, 4, T_Sinc, T_Sinc_UGRG, 468.8, hit, 2, 0
571, 4, T_Sinc, T_Sinc_UGRG, 416.3, hit, 2, 0
572, 4, T_Scon, T_Scon_DGRG, 347.8, hit, 2, 0
573, 4, T_Scon, T_Scon_URLR, 311.1, hit, 1, 0
574, 4, T_Sinc, T_Sinc_DRLR, 374.6, hit, 1, 0
575, 4, T_Scon, T_Scon_URLR, 338.0, hit, 1, 0
576, 4, T_Sinc, T_Sinc_DRLR, 373.5, hit, 1, 0
577, 5, T_Scon, T_Scon_URLR, 408.2, hit, 1, 0
578, 5, T_Sinc, T_Sinc_DRLR, 379.6, hit, 1, 0
579, 5, T_Sinc, T_Sinc_DRLR, 363.1, hit, 1, 0
580, 5, T_Scon, T_Scon_DGRG, 390.6, hit, 2, 0
581, 5, T_Sinc, T_Sinc_UGRG, 322.1, hit, 2, 0
582, 5, T_Sinc, T_Sinc_DRLR, 525.4, hit, 1, 0
583, 5, T_Sinc, T_Sinc_UGRG, 828.9, hit, 2, 2
584, 5, T_Sinc, T_Sinc_UGRG, 360.3, hit, 2, 0
585, 5, T_Sinc, T_Sinc_DRLR, 367.7, hit, 1, 0
586, 5, T_Scon, T_Scon_DGRG, 359.2, hit, 2, 0
587, 5, T_Sinc, T_Sinc_UGRG, 694.6, hit, 2, 0
588, 5, T_Scon, T_Scon_DGRG, 374.1, hit, 2, 0
589, 5, T_Sinc, T_Sinc_UGRG, 369.5, hit, 2, 0
590, 5, T_Sinc, T_Sinc_UGRG, 372.9, hit, 2, 0
591, 5, T_Scon, T_Scon_DGRG, 352.4, hit, 2, 0
592, 5, T_Sinc, T_Sinc_DRLR, 395.8, hit, 1, 0
593, 5, T_Sinc, T_Sinc_DRLR, 415.2, hit, 1, 0
594, 5, T_Scon, T_Scon_DGRG, 494.7, hit, 2, 0
595, 5, T_Scon, T_Scon_DGRG, 450.1, hit, 2, 0
596, 5, T_Sinc, T_Sinc_UGRG, 381.6, hit, 2, 0
597, 5, T_Sinc, T_Sinc_UGRG, 321.0, hit, 2, 0
598, 5, T_Sinc, T_Sinc_UGRG, 316.4, hit, 2, 0
599, 5, T_Sinc, T_Sinc_DRLR, 447.9, hit, 1, 0
600, 5, T_Sinc, T_Sinc_UGRG, 491.3, hit, 2, 0
601, 5, T_Sinc, T_Sinc_UGRG, 278.7, hit, 2, 0
602, 5, T_Sinc, T_Sinc_DRLR, 378.2, hit, 1, 0
603, 5, T_Sinc, T_Sinc_DRLR, 461.7, hit, 1, 0
604, 5, T_Scon, T_Scon_URLR, 485.1, hit, 1, 0
605, 5, T_Scon, T_Scon_URLR, 444.5, hit, 1, 0
606, 5, T_Sinc, T_Sinc_DRLR, 411.9, hit, 1, 0
607, 5, T_Sinc, T_Sinc_DRLR, 367.4, hit, 1, 0
608, 5, T_Sinc, T_Sinc_DRLR, 354.8, hit, 1, 0
609, 5, T_Scon, T_Scon_URLR, 390.2, hit, 1, 0
610, 5, T_Sinc, T_Sinc_DRLR, 325.7, hit, 1, 0
611, 5, T_Sinc, T_Sinc_UGRG, 553.1, hit, 2, 0
612, 5, T_Sinc, T_Sinc_DRLR, 404.5, hit, 1, 0
613, 5, T_Sinc, T_Sinc_UGRG, 483.8, hit, 2, 0
614, 5, T_Scon, T_Scon_URLR, 355.2, hit, 1, 0
615, 5, T_Sinc, T_Sinc_DRLR, 486.6, hit, 1, 0
616, 5, T_Sinc, T_Sinc_DRLR, 298.0, hit, 1, 0
617, 5, T_Sinc, T_Sinc_UGRG, 361.5, hit, 2, 0
618, 5, T_Sinc, T_Sinc_UGRG, 552.9, hit, 2, 0
619, 5, T_Scon, T_Scon_URLR, 344.3, hit, 1, 0
620, 5, T_Sinc, T_Sinc_UGRG, 403.8, hit, 2, 0
621, 5, T_Sinc, T_Sinc_DRLR, 359.2, hit, 1, 0
622, 5, T_Sinc, T_Sinc_UGRG, 370.6, hit, 2, 0
623, 5, T_Sinc, T_Sinc_UGRG, 290.1, hit, 2, 0
624, 5, T_Sinc, T_Sinc_UGRG, 501.5, hit, 2, 0
625, 5, T_Sinc, T_Sinc_UGRG, 413.0, hit, 2, 0
626, 5, T_Sinc, T_Sinc_UGRG, 336.4, hit, 2, 0
627, 5, T_Sinc, T_Sinc_UGRG, 287.8, hit, 2, 0
628, 5, T_Sinc, T_Sinc_UGRG, 271.3, hit, 2, 0
629, 5, T_Sinc, T_Sinc_DRLR, 418.8, hit, 1, 0
630, 5, T_Sinc, T_Sinc_DRLR, 334.1, hit, 1, 0
631, 5, T_Scon, T_Scon_DGRG, 293.6, hit, 2, 0
632, 5, T_Sinc, T_Sinc_DRLR, 585.1, hit, 1, 0
633, 5, T_Sinc, T_Sinc_DRLR, 388.4, hit, 1, 0
634, 5, T_Scon, T_Scon_URLR, 471.9, hit, 1, 0
635, 5, T_Scon, T_Scon_DGRG, 379.3, hit, 2, 0
636, 5, T_Sinc, T_Sinc_UGRG, 318.8, hit, 2, 0
637, 5, T_Sinc, T_Sinc_UGRG, 394.3, hit, 2, 0
638, 5, T_Sinc, T_Sinc_UGRG, 321.6, hit, 2, 0
639, 5, T_Sinc, T_Sinc_DRLR, 357.1, hit, 1, 0
640, 5, T_Sinc, T_Sinc_DRLR, 380.6, hit, 1, 0
641, 5, T_Sinc, T_Sinc_UGRG, 272.0, hit, 2, 0
642, 5, T_Sinc, T_Sinc_UGRG, 299.4, hit, 2, 0
643, 5, T_Scon, T_Scon_DGRG, 370.9, hit, 2, 0
644, 5, T_Sinc, T_Sinc_DRLR, 350.3, hit, 1, 0
645, 5, T_Scon, T_Scon_URLR, 445.8, hit, 1, 0
646, 5, T_Scon, T_Scon_DGRG, 393.1, hit, 2, 0
647, 5, T_Sinc, T_Sinc_UGRG, 484.6, hit, 2, 0
648, 5, T_Sinc, T_Sinc_UGRG, 404.1, hit, 2, 0
649, 5, T_Sinc, T_Sinc_DRLR, 531.2, hit, 1, 0
650, 5, T_Sinc, T_Sinc_DRLR, 462.6, hit, 1, 0
651, 5, T_Sinc, T_Sinc_DRLR, 570.1, hit, 1, 0
652, 5, T_Sinc, T_Sinc_DRLR, 421.6, hit, 1, 0
653, 5, T_Scon, T_Scon_URLR, 464.9, hit, 1, 0
654, 5, T_Sinc, T_Sinc_DRLR, 348.4, hit, 1, 0
655, 5, T_Sinc, T_Sinc_UGRG, 383.9, hit, 2, 0
656, 5, T_Sinc, T_Sinc_UGRG, 303.2, hit, 2, 0
657, 5, T_Sinc, T_Sinc_DRLR, 390.7, hit, 1, 0
658, 5, T_Scon, T_Scon_DGRG, 514.2, hit, 2, 0
659, 5, T_Scon, T_Scon_DGRG, 453.6, hit, 2, 0
660, 5, T_Sinc, T_Sinc_DRLR, 485.1, hit, 1, 0
661, 5, T_Sinc, T_Sinc_UGRG, 424.5, hit, 2, 0
662, 5, T_Sinc, T_Sinc_DRLR, 411.9, hit, 1, 0
663, 5, T_Sinc, T_Sinc_DRLR, 439.4, hit, 1, 0
664, 5, T_Sinc, T_Sinc_DRLR, 462.8, hit, 1, 0
665, 5, T_Sinc, T_Sinc_UGRG, 546.2, hit, 2, 0
666, 5, T_Sinc, T_Sinc_UGRG, 421.7, hit, 2, 0
667, 5, T_Sinc, T_Sinc_UGRG, 297.1, hit, 2, 0
668, 5, T_Sinc, T_Sinc_DRLR, 404.6, hit, 1, 0
669, 5, T_Sinc, T_Sinc_DRLR, 288.0, hit, 1, 0
670, 5, T_Sinc, T_Sinc_UGRG, 335.4, hit, 2, 0
671, 5, T_Scon, T_Scon_URLR, 374.9, hit, 1, 0
672, 5, T_Sinc, T_Sinc_DRLR, 434.3, hit, 1, 0
673, 5, T_Sinc, T_Sinc_UGRG, 429.7, hit, 2, 0
674, 5, T_Sinc, T_Sinc_UGRG, 349.2, hit, 2, 0
675, 5, T_Sinc, T_Sinc_DRLR, 748.7, hit, 1, 2
676, 5, T_Sinc, T_Sinc_DRLR, 320.0, hit, 1, 0
677, 5, T_Sinc, T_Sinc_DRLR, 379.5, hit, 1, 0
678, 5, T_Scon, T_Scon_DGRG, 382.9, hit, 2, 0
679, 5, T_Sinc, T_Sinc_DRLR, 374.4, hit, 1, 0
680, 5, T_Scon, T_Scon_URLR, 385.8, hit, 1, 0
681, 5, T_Sinc, T_Sinc_UGRG, 369.2, hit, 2, 0
682, 5, T_Sinc, T_Sinc_DRLR, 436.7, hit, 1, 0
683, 5, T_Scon, T_Scon_URLR, 380.1, hit, 1, 0
684, 5, T_Sinc, T_Sinc_DRLR, 439.5, hit, 1, 0
685, 5, T_Sinc, T_Sinc_UGRG, 758.8, hit, 2, 2
686, 5, T_Sinc, T_Sinc_UGRG, 618.2, hit, 2, 0
687, 5, T_Sinc, T_Sinc_DRLR, 589.6, hit, 1, 0
688, 5, T_Sinc, T_Sinc_DRLR, 449.0, hit, 1, 0
689, 5, T_Scon, T_Scon_DGRG, 512.5, hit, 2, 0
690, 5, T_Sinc, T_Sinc_UGRG, 531.9, hit, 2, 0
691, 5, T_Sinc, T_Sinc_UGRG, 431.3, hit, 2, 0
692, 5, T_Scon, T_Scon_URLR, 430.8, hit, 1, 0
693, 5, T_Scon, T_Scon_DGRG, 762.2, hit, 2, 2
694, 5, T_Sinc, T_Sinc_DRLR, 505.7, hit, 1, 0
695, 5, T_Sinc, T_Sinc_UGRG, 769.1, hit, 2, 2
696, 5, T_Scon, T_Scon_DGRG, 564.5, incorrect, 1, 1
697, 5, T_Scon, T_Scon_URLR, 524.0, hit, 1, 0
698, 5, T_Sinc, T_Sinc_UGRG, 447.5, hit, 2, 0
699, 5, T_Sinc, T_Sinc_UGRG, 442.8, hit, 2, 0
700, 5, T_Scon, T_Scon_URLR, 410.3, hit, 1, 0
701, 5, T_Sinc, T_Sinc_UGRG, 321.8, hit, 2, 0
702, 5, T_Scon, T_Scon_DGRG, 533.2, hit, 2, 0
703, 5, T_Sinc, T_Sinc_UGRG, 400.6, hit, 2, 0
704, 5, T_Scon, T_Scon_URLR, 368.0, hit, 1, 0
705, 5, T_Sinc, T_Sinc_DRLR, 447.5, incorrect, 2, 1
706, 5, T_Sinc, T_Sinc_DRLR, 490.9, hit, 1, 0
707, 5, T_Scon, T_Scon_DGRG, 634.3, hit, 2, 0
708, 5, T_Sinc, T_Sinc_UGRG, 741.8, hit, 2, 2
709, 5, T_Sinc, T_Sinc_DRLR, 553.2, hit, 1, 0
710, 5, T_Sinc, T_Sinc_DRLR, 420.6, hit, 1, 0
711, 5, T_Sinc, T_Sinc_UGRG, 360.1, hit, 2, 0
712, 5, T_Scon, T_Scon_URLR, 439.6, hit, 1, 0
713, 5, T_Sinc, T_Sinc_DRLR, 419.0, hit, 1, 0
714, 5, T_Sinc, T_Sinc_UGRG, 326.4, hit, 2, 0
715, 5, T_Sinc, T_Sinc_DRLR, 425.9, hit, 1, 0
716, 5, T_Sinc, T_Sinc_DRLR, 589.2, hit, 1, 0
717, 5, T_Scon, T_Scon_URLR, 460.7, hit, 1, 0
718, 5, T_Sinc, T_Sinc_UGRG, 512.2, hit, 2, 0
719, 5, T_Sinc, T_Sinc_DRLR, 443.6, hit, 1, 0
720, 5, T_Sinc, T_Sinc_UGRG, 343.0, hit, 2, 0
721, 6, T_Sinc, T_Sinc_DRLR, 455.7, hit, 1, 0
722, 6, T_Sinc, T_Sinc_UGRG, 363.1, hit, 2, 0
723, 6, T_Sinc, T_Sinc_UGRG, 318.6, hit, 2, 0
724, 6, T_Sinc, T_Sinc_DRLR, 405.9, hit, 1, 0
725, 6, T_Sinc, T_Sinc_UGRG, 393.4, hit, 2, 0
726, 6, T_Scon, T_Scon_URLR, 404.9, hit, 1, 0
727, 6, T_Sinc, T_Sinc_UGRG, 328.3, hit, 2, 0
728, 6, T_Sinc, T_Sinc_DRLR, 363.7, hit, 1, 0
729, 6, T_Scon, T_Scon_DGRG, 287.2, hit, 2, 0
730, 6, T_Sinc, T_Sinc_DRLR, 366.6, hit, 1, 0
731, 6, T_Sinc, T_Sinc_DRLR, 298.0, hit, 1, 0
732, 6, T_Sinc, T_Sinc_UGRG, 305.4, hit, 2, 0
733, 6, T_Sinc, T_Sinc_UGRG, 348.9, hit, 2, 0
734, 6, T_Sinc, T_Sinc_DRLR, 484.3, hit, 1, 0
735, 6, T_Sinc, T_Sinc_DRLR, 383.7, hit, 1, 0
736, 6, T_Scon, T_Scon_URLR, 383.2, hit, 1, 0
737, 6, T_Sinc, T_Sinc_UGRG, 318.7, hit, 2, 0
738, 6, T_Sinc, T_Sinc_DRLR, 450.1, hit, 1, 0
739, 6, T_Scon, T_Scon_DGRG, 405.5, hit, 2, 0
740, 6, T_Scon, T_Scon_DGRG, 361.0, hit, 2, 0
741, 6, T_Sinc, T_Sinc_UGRG, 372.4, hit, 2, 0
742, 6, T_Sinc, T_Sinc_DRLR, 367.8, hit, 1, 0
743, 6, T_Scon, T_Scon_URLR, 331.3, hit, 1, 0
744, 6, T_Sinc, T_Sinc_DRLR, 350.7, hit, 1, 0
745, 6, T_Sinc, T_Sinc_DRLR, 474.2, hit, 1, 0
746, 6, T_Sinc, T_Sinc_UGRG, 577.5, hit, 2, 0
747, 6, T_Sinc, T_Sinc_UGRG, 485.0, hit, 2, 0
748, 6, T_Sinc, T_Sinc_UGRG, 340.5, hit, 2, 0
749, 6, T_Scon, T_Scon_URLR, 376.0, hit, 1, 0
750, 6, T_Sinc, T_Sinc_UGRG, 355.4, hit, 2, 0
751, 6, T_Sinc, T_Sinc_UGRG, 390.8, hit, 2, 0
752, 6, T_Sinc, T_Sinc_UGRG, 450.2, hit, 2, 0
753, 6, T_Sinc, T_Sinc_UGRG, 349.7, hit, 2, 0
754, 6, T_Sinc, T_Sinc_UGRG, 377.1, hit, 2, 0
755, 6, T_Sinc, T_Sinc_UGRG, 300.5, hit, 2, 0
756, 6, T_Sinc, T_Sinc_UGRG, 304.0, hit, 2, 0
757, 6, T_Sinc, T_Sinc_DRLR, 503.2, hit, 1, 0
758, 6, T_Scon, T_Scon_DGRG, 382.6, hit, 2, 0
759, 6, T_Sinc, T_Sinc_UGRG, 506.0, hit, 2, 0
760, 6, T_Sinc, T_Sinc_UGRG, 353.5, hit, 2, 0
761, 6, T_Scon, T_Scon_DGRG, 404.9, hit, 2, 0
762, 6, T_Sinc, T_Sinc_UGRG, 372.3, hit, 2, 0
763, 6, T_Sinc, T_Sinc_DRLR, 375.8, hit, 1, 0
764, 6, T_Scon, T_Scon_DGRG, 571.2, hit, 2, 0
765, 6, T_Sinc, T_Sinc_UGRG, 374.7, hit, 2, 0
766, 6, T_Scon, T_Scon_DGRG, 454.2, hit, 2, 0
767, 6, T_Scon, T_Scon_URLR, 433.6, hit, 1, 0
768, 6, T_Sinc, T_Sinc_UGRG, 341.0, hit, 2, 0
769, 6, T_Sinc, T_Sinc_DRLR, 416.5, hit, 1, 0
770, 6, T_Sinc, T_Sinc_UGRG, 319.8, hit, 2, 0
771, 6, T_Sinc, T_Sinc_UGRG, 395.3, hit, 2, 0
772, 6, T_Scon, T_Scon_DGRG, 382.7, hit, 2, 0
773, 6, T_Sinc, T_Sinc_DRLR, 350.2, hit, 1, 0
774, 6, T_Sinc, T_Sinc_DRLR, 385.6, hit, 1, 0
775, 6, T_Sinc, T_Sinc_DRLR, 389.0, hit, 1, 0
776, 6, T_Sinc, T_Sinc_DRLR, 440.5, hit, 1, 0
777, 6, T_Sinc, T_Sinc_UGRG, 507.9, hit, 2, 0
778, 6, T_Sinc, T_Sinc_DRLR, 659.3, hit, 1, 0
779, 6, T_Sinc, T_Sinc_UGRG, 370.8, hit, 2, 0
780, 6, T_Sinc, T_Sinc_UGRG, 398.3, hit, 2, 0
781, 6, T_Sinc, T_Sinc_DRLR, 361.7, hit, 1, 0
782, 6, T_Sinc, T_Sinc_UGRG, 381.1, hit, 2, 0
783, 6, T_Sinc, T_Sinc_UGRG, 412.6, hit, 2, 0
784, 6, T_Sinc, T_Sinc_UGRG, 332.0, hit, 2, 0
785, 6, T_Scon, T_Scon_URLR, 375.4, hit, 1, 0
786, 6, T_Sinc, T_Sinc_DRLR, 418.8, hit, 1, 0
787, 6, T_Sinc, T_Sinc_DRLR, 382.3, hit, 1, 0
788, 6, T_Sinc, T_Sinc_DRLR, 345.8, hit, 1, 0
789, 6, T_Scon, T_Scon_DGRG, 289.2, hit, 2, 0
790, 6, T_Sinc, T_Sinc_DRLR, 340.6, hit, 1, 0
791, 6, T_Sinc, T_Sinc_DRLR, 420.1, hit, 1, 0
792, 6, T_Scon, T_Scon_DGRG, 463.5, hit, 2, 0
793, 6, T_Sinc, T_Sinc_DRLR, 462.7, hit, 1, 0
794, 6, T_Sinc, T_Sinc_DRLR, 382.1, hit, 1, 0
795, 6, T_Scon, T_Scon_URLR, 497.6, hit, 1, 0
796, 6, T_Sinc, T_Sinc_DRLR, 345.0, hit, 1, 0
797, 6, T_Sinc, T_Sinc_DRLR, 380.4, hit, 1, 0
798, 6, T_Sinc, T_Sinc_UGRG, 343.9, hit, 2, 0
799, 6, T_Sinc, T_Sinc_DRLR, 435.3, hit, 1, 0
800, 6, T_Sinc, T_Sinc_UGRG, 398.7, hit, 2, 0
801, 6, T_Scon, T_Scon_DGRG, 370.1, hit, 2, 0
802, 6, T_Sinc, T_Sinc_DRLR, 393.6, hit, 1, 0
803, 6, T_Sinc, T_Sinc_DRLR, 341.1, hit, 1, 0
804, 6, T_Sinc, T_Sinc_UGRG, 408.4, hit, 2, 0
805, 6, T_Sinc, T_Sinc_DRLR, 407.9, hit, 1, 0
806, 6, T_Scon, T_Scon_DGRG, 395.4, hit, 2, 0
807, 6, T_Sinc, T_Sinc_DRLR, 358.7, hit, 1, 0
808, 6, T_Scon, T_Scon_DGRG, 450.2, hit, 2, 0
809, 6, T_Sinc, T_Sinc_UGRG, 409.7, hit, 2, 0
810, 6, T_Scon, T_Scon_URLR, 573.1, hit, 1, 0
811, 6, T_Scon, T_Scon_URLR, 448.5, hit, 1, 0
812, 6, T_Sinc, T_Sinc_DRLR, 396.0, incorrect, 2, 1
813, 6, T_Scon, T_Scon_URLR, 543.4, hit, 1, 0
814, 6, T_Sinc, T_Sinc_DRLR, 398.9, hit, 1, 0
815, 6, T_Sinc, T_Sinc_UGRG, 410.3, hit, 2, 0
816, 6, T_Sinc, T_Sinc_UGRG, 741.7, hit, 2, 2
817, 6, T_Sinc, T_Sinc_DRLR, 421.1, hit, 1, 0
818, 6, T_Sinc, T_Sinc_UGRG, 508.6, hit, 2, 0
819, 6, T_Scon, T_Scon_URLR, 404.0, hit, 1, 0
820, 6, T_Sinc, T_Sinc_DRLR, 587.5, hit, 1, 0
821, 6, T_Sinc, T_Sinc_UGRG, 442.9, incorrect, 1, 1
822, 6, T_Sinc, T_Sinc_UGRG, 298.3, hit, 2, 0
823, 6, T_Sinc, T_Sinc_DRLR, 369.8, hit, 1, 0
824, 6, T_Sinc, T_Sinc_DRLR, 509.2, hit, 1, 0
825, 6, T_Sinc, T_Sinc_DRLR, 416.7, hit, 1, 0
826, 6, T_Sinc, T_Sinc_DRLR, 364.1, hit, 1, 0
827, 6, T_Sinc, T_Sinc_UGRG, 431.5, hit, 2, 0
828, 6, T_Sinc, T_Sinc_DRLR, 459.0, hit, 1, 0
829, 6, T_Scon, T_Scon_URLR, 450.1, hit, 1, 0
830, 6, T_Sinc, T_Sinc_UGRG, 425.6, hit, 2, 0
831, 6, T_Sinc, T_Sinc_UGRG, 357.0, hit, 2, 0
832, 6, T_Sinc, T_Sinc_DRLR, 400.5, hit, 1, 0
833, 6, T_Scon, T_Scon_DGRG, 507.8, hit, 2, 0
834, 6, T_Scon, T_Scon_URLR, 651.3, hit, 1, 0
835, 6, T_Sinc, T_Sinc_UGRG, 354.8, hit, 2, 0
836, 6, T_Sinc, T_Sinc_DRLR, 386.2, hit, 1, 0
837, 6, T_Scon, T_Scon_DGRG, 357.6, hit, 2, 0
838, 6, T_Scon, T_Scon_URLR, 341.1, hit, 1, 0
839, 6, T_Sinc, T_Sinc_UGRG, 500.5, hit, 2, 0
840, 6, T_Sinc, T_Sinc_UGRG, 387.9, hit, 2, 0
841, 6, T_Sinc, T_Sinc_DRLR, 367.4, hit, 1, 0
842, 6, T_Sinc, T_Sinc_DRLR, 530.8, hit, 1, 0
843, 6, T_Sinc, T_Sinc_DRLR, 486.3, hit, 1, 0
844, 6, T_Sinc, T_Sinc_DRLR, 441.8, hit, 1, 0
845, 6, T_Sinc, T_Sinc_UGRG, 437.1, hit, 2, 0
846, 6, T_Sinc, T_Sinc_UGRG, 352.6, hit, 2, 0
847, 6, T_Sinc, T_Sinc_UGRG, 528.0, hit, 2, 0
848, 6, T_Scon, T_Scon_URLR, 679.5, hit, 1, 0
849, 6, T_Scon, T_Scon_URLR, 534.9, hit, 1, 0
850, 6, T_Sinc, T_Sinc_UGRG, 422.3, hit, 2, 0
851, 6, T_Scon, T_Scon_DGRG, 665.8, hit, 2, 0
852, 6, T_Sinc, T_Sinc_UGRG, 393.3, hit, 2, 0
853, 6, T_Sinc, T_Sinc_UGRG, 364.6, hit, 2, 0
854, 6, T_Sinc, T_Sinc_DRLR, 372.1, hit, 1, 0
855, 6, T_Scon, T_Scon_DGRG, 447.6, hit, 2, 0
856, 6, T_Scon, T_Scon_URLR, 618.9, hit, 1, 0
857, 6, T_Sinc, T_Sinc_DRLR, 814.4, hit, 1, 2
858, 6, T_Sinc, T_Sinc_UGRG, 345.8, hit, 2, 0
859, 6, T_Sinc, T_Sinc_DRLR, 429.3, hit, 1, 0
860, 6, T_Scon, T_Scon_URLR, 332.8, incorrect, 2, 1
861, 6, T_Sinc, T_Sinc_DRLR, 436.1, hit, 1, 0
862, 6, T_Sinc, T_Sinc_UGRG, 351.6, hit, 2, 0
863, 6, T_Scon, T_Scon_DGRG, 403.1, hit, 2, 0
864, 6, T_Sinc, T_Sinc_DRLR, 358.4, hit, 1, 0
865, 7, T_Sinc, T_Sinc_UGRG, 604.4, hit, 2, 0
866, 7, T_Scon, T_Scon_URLR, 531.9, hit, 1, 0
867, 7, T_Scon, T_Scon_DGRG, 379.3, hit, 2, 0
868, 7, T_Scon, T_Scon_URLR, 462.8, hit, 1, 0
869, 7, T_Sinc, T_Sinc_UGRG, 410.2, hit, 2, 0
870, 7, T_Scon, T_Scon_URLR, 389.6, hit, 1, 0
871, 7, T_Scon, T_Scon_DGRG, 425.1, hit, 2, 0
872, 7, T_Scon, T_Scon_URLR, 316.5, hit, 1, 0
873, 7, T_Sinc, T_Sinc_UGRG, 435.9, hit, 2, 0
874, 7, T_Sinc, T_Sinc_UGRG, 407.4, hit, 2, 0
875, 7, T_Sinc, T_Sinc_UGRG, 410.9, hit, 2, 0
876, 7, T_Scon, T_Scon_URLR, 358.3, hit, 1, 0
877, 7, T_Scon, T_Scon_DGRG, 397.7, incorrect, 1, 1
878, 7, T_Sinc, T_Sinc_UGRG, 317.1, hit, 2, 0
879, 7, T_Sinc, T_Sinc_UGRG, 332.6, hit, 2, 0
880, 7, T_Scon, T_Scon_URLR, 380.1, hit, 1, 0
881, 7, T_Sinc, T_Sinc_DRLR, 575.5, hit, 1, 0
882, 7, T_Scon, T_Scon_URLR, 482.9, hit, 1, 0
883, 7, T_Scon, T_Scon_DGRG, 382.4, hit, 2, 0
884, 7, T_Scon, T_Scon_DGRG, 377.8, hit, 2, 0
885, 7, T_Scon, T_Scon_URLR, 377.2, hit, 1, 0
886, 7, T_Sinc, T_Sinc_DRLR, 612.7, hit, 1, 0
887, 7, T_Scon, T_Scon_DGRG, 416.1, hit, 2, 0
888, 7, T_Scon, T_Scon_URLR, 351.5, hit, 1, 0
889, 7, T_Scon, T_Scon_DGRG, 391.0, hit, 2, 0
890, 7, T_Scon, T_Scon_DGRG, 618.4, hit, 2, 0
891, 7, T_Scon, T_Scon_DGRG, 389.9, hit, 2, 0
892, 7, T_Scon, T_Scon_URLR, 333.2, hit, 1, 0
893, 7, T_Sinc, T_Sinc_DRLR, 736.7, hit, 1, 2
894, 7, T_Sinc, T_Sinc_DRLR, 372.2, hit, 1, 0
895, 7, T_Sinc, T_Sinc_UGRG, 527.6, hit, 2, 0
896, 7, T_Scon, T_Scon_URLR, 347.0, hit, 1, 0
897, 7, T_Sinc, T_Sinc_UGRG, 410.4, hit, 2, 0
898, 7, T_Sinc, T_Sinc_DRLR, 437.9, hit, 1, 0
899, 7, T_Sinc, T_Sinc_DRLR, 433.3, hit, 1, 0
900, 7, T_Sinc, T_Sinc_DRLR, 364.8, hit, 1, 0
901, 7, T_Scon, T_Scon_DGRG, 652.0, hit, 2, 0
902, 7, T_Scon, T_Scon_DGRG, 423.3, hit, 2, 0
903, 7, T_Scon, T_Scon_DGRG, 402.8, hit, 2, 0
904, 7, T_Scon, T_Scon_DGRG, 398.3, hit, 2, 0
905, 7, T_Scon, T_Scon_DGRG, 341.7, hit, 2, 0
906, 7, T_Scon, T_Scon_DGRG, 449.1, hit, 2, 0
907, 7, T_Scon, T_Scon_DGRG, 516.5, hit, 2, 0
908, 7, T_Scon, T_Scon_URLR, 380.0, hit, 1, 0
909, 7, T_Scon, T_Scon_DGRG, 287.4, hit, 2, 0
910, 7, T_Scon, T_Scon_DGRG, 370.8, hit, 2, 0
911, 7, T_Scon, T_Scon_URLR, 402.3, hit, 1, 0
912, 7, T_Scon, T_Scon_URLR, 341.8, hit, 1, 0
913, 7, T_Scon, T_Scon_URLR, 401.1, hit, 1, 0
914, 7, T_Scon, T_Scon_DGRG, 504.6, hit, 2, 0
915, 7, T_Scon, T_Scon_DGRG, 372.1, hit, 2, 0
916, 7, T_Sinc, T_Sinc_DRLR, 367.5, hit, 1, 0
917, 7, T_Scon, T_Scon_URLR, 386.9, hit, 1, 0
918, 7, T_Sinc, T_Sinc_UGRG, 342.4, hit, 2, 0
919, 7, T_Scon, T_Scon_URLR, 437.8, hit, 1, 0
920, 7, T_Scon, T_Scon_DGRG, 313.2, hit, 2, 0
921, 7, T_Scon, T_Scon_DGRG, 308.7, hit, 2, 0
922, 7, T_Scon, T_Scon_DGRG, 396.1, hit, 2, 0
923, 7, T_Scon, T_Scon_URLR, 295.5, hit, 1, 0
924, 7, T_Sinc, T_Sinc_DRLR, 570.9, hit, 1, 0
925, 7, T_Sinc, T_Sinc_UGRG, 338.4, hit, 2, 0
926, 7, T_Scon, T_Scon_DGRG, 277.9, hit, 2, 0
927, 7, T_Sinc, T_Sinc_DRLR, 389.3, hit, 1, 0
928, 7, T_Scon, T_Scon_URLR, 348.7, hit, 1, 0
929, 7, T_Scon, T_Scon_DGRG, 344.2, hit, 2, 0
930, 7, T_Sinc, T_Sinc_UGRG, 299.6, hit, 2, 0
931, 7, T_Scon, T_Scon_URLR, 343.1, hit, 1, 0
932, 7, T_Scon, T_Scon_URLR, 330.5, hit, 1, 0
933, 7, T_Scon, T_Scon_DGRG, 397.9, hit, 2, 0
934, 7, T_Scon, T_Scon_URLR, 317.4, hit, 1, 0
935, 7, T_Scon, T_Scon_DGRG, 648.9, hit, 2, 0
936, 7, T_Sinc, T_Sinc_DRLR, 420.2, hit, 1, 0
937, 7, T_Scon, T_Scon_DGRG, 423.5, hit, 2, 0
938, 7, T_Scon, T_Scon_URLR, 386.9, hit, 1, 0
939, 7, T_Scon, T_Scon_URLR, 446.3, hit, 1, 0
940, 7, T_Scon, T_Scon_DGRG, 409.7, hit, 2, 0
941, 7, T_Sinc, T_Sinc_UGRG, 337.2, hit, 2, 0
942, 7, T_Scon, T_Scon_DGRG, 328.7, hit, 2, 0
943, 7, T_Scon, T_Scon_DGRG, 300.0, hit, 2, 0
944, 7, T_Scon, T_Scon_DGRG, 455.5, hit, 2, 0
945, 7, T_Scon, T_Scon_URLR, 770.9, hit, 1, 2
946, 7, T_Scon, T_Scon_DGRG, 310.4, hit, 2, 0
947, 7, T_Scon, T_Scon_URLR, 385.8, hit, 1, 0
948, 7, T_Sinc, T_Sinc_UGRG, 349.2, hit, 2, 0
949, 7, T_Scon, T_Scon_DGRG, 376.7, hit, 2, 0
950, 7, T_Sinc, T_Sinc_DRLR, 412.1, hit, 1, 0
951, 7, T_Sinc, T_Sinc_DRLR, 359.5, hit, 1, 0
952, 7, T_Sinc, T_Sinc_DRLR, 311.0, hit, 1, 0
953, 7, T_Scon, T_Scon_DGRG, 410.4, hit, 2, 0
954, 7, T_Scon, T_Scon_DGRG, 445.9, hit, 2, 0
955, 7, T_Scon, T_Scon_URLR, 377.3, hit, 1, 0
956, 7, T_Scon, T_Scon_URLR, 276.7, hit, 1, 0
957, 7, T_Scon, T_Scon_URLR, 416.2, incorrect, 2, 1
958, 7, T_Scon, T_Scon_URLR, 531.7, hit, 1, 0
959, 7, T_Scon, T_Scon_URLR, 419.1, hit, 1, 0
960, 7, T_Scon, T_Scon_URLR, 330.5, hit, 1, 0
961, 7, T_Sinc, T_Sinc_UGRG, 598.0, hit, 2, 0
962, 7, T_Scon, T_Scon_URLR, 325.4, hit, 1, 0
963, 7, T_Scon, T_Scon_URLR, 408.8, hit, 1, 0
964, 7, T_Sinc, T_Sinc_DRLR, 516.3, hit, 1, 0
965, 7, T_Scon, T_Scon_DGRG, 407.7, hit, 2, 0
966, 7, T_Scon, T_Scon_URLR, 339.2, hit, 1, 0
967, 7, T_Scon, T_Scon_DGRG, 438.5, hit, 2, 0
968, 7, T_Scon, T_Scon_URLR, 350.0, hit, 1, 0
969, 7, T_Scon, T_Scon_DGRG, 449.5, hit, 2, 0
970, 7, T_Scon, T_Scon_URLR, 384.9, hit, 1, 0
971, 7, T_Scon, T_Scon_DGRG, 452.3, hit, 2, 0
972, 7, T_Sinc, T_Sinc_UGRG, 383.7, hit, 2, 0
973, 7, T_Scon, T_Scon_DGRG, 399.0, hit, 2, 0
974, 7, T_Scon, T_Scon_URLR, 382.3, hit, 1, 0
975, 7, T_Scon, T_Scon_DGRG, 469.8, hit, 2, 0
976, 7, T_Scon, T_Scon_URLR, 449.3, hit, 1, 0
977, 7, T_Scon, T_Scon_DGRG, 352.6, hit, 2, 0
978, 7, T_Scon, T_Scon_URLR, 388.1, hit, 1, 0
979, 7, T_Scon, T_Scon_URLR, 407.6, hit, 1, 0
980, 7, T_Scon, T_Scon_URLR, 295.0, hit, 1, 0
981, 7, T_Scon, T_Scon_URLR, 318.4, hit, 1, 0
982, 7, T_Scon, T_Scon_URLR, 377.8, hit, 1, 0
983, 7, T_Scon, T_Scon_URLR, 341.3, hit, 1, 0
984, 7, T_Scon, T_Scon_URLR, 312.8, hit, 1, 0
985, 7, T_Sinc, T_Sinc_DRLR, 468.1, hit, 1, 0
986, 7, T_Scon, T_Scon_URLR, 371.6, hit, 1, 0
987, 7, T_Scon, T_Scon_DGRG, 371.1, hit, 2, 0
988, 7, T_Sinc, T_Sinc_UGRG, 314.5, hit, 2, 0
989, 7, T_Scon, T_Scon_DGRG, 345.9, hit, 2, 0
990, 7, T_Scon, T_Scon_URLR, 573.4, hit, 1, 0
991, 7, T_Scon, T_Scon_DGRG, 592.8, hit, 2, 0
992, 7, T_Scon, T_Scon_URLR, 392.3, hit, 1, 0
993, 7, T_Scon, T_Scon_DGRG, 459.6, hit, 2, 0
994, 7, T_Sinc, T_Sinc_UGRG, 383.1, hit, 2, 0
995, 7, T_Scon, T_Scon_URLR, 342.6, hit, 1, 0
996, 7, T_Scon, T_Scon_DGRG, 353.9, hit, 2, 0
997, 7, T_Sinc, T_Sinc_DRLR, 397.4, hit, 1, 0
998, 7, T_Scon, T_Scon_DGRG, 352.9, hit, 2, 0
999, 7, T_Scon, T_Scon_DGRG, 400.3, hit, 2, 0
1000, 7, T_Scon, T_Scon_DGRG, 319.8, hit, 2, 0
1001, 7, T_Scon, T_Scon_DGRG, 375.1, hit, 2, 0
1002, 7, T_Scon, T_Scon_DGRG, 290.6, hit, 2, 0
1003, 7, T_Scon, T_Scon_URLR, 414.1, hit, 1, 0
1004, 7, T_Scon, T_Scon_URLR, 385.5, hit, 1, 0
1005, 7, T_Scon, T_Scon_URLR, 320.9, hit, 1, 0
1006, 7, T_Scon, T_Scon_URLR, 424.4, hit, 1, 0
1007, 7, T_Sinc, T_Sinc_DRLR, 447.8, hit, 1, 0
1008, 7, T_Scon, T_Scon_DGRG, 579.2, hit, 2, 0
1009, 8, T_Sinc, T_Sinc_UGRG, 553.6, hit, 2, 0
1010, 8, T_Sinc, T_Sinc_DRLR, 389.1, hit, 1, 0
1011, 8, T_Scon, T_Scon_DGRG, 416.4, hit, 2, 0
1012, 8, T_Sinc, T_Sinc_UGRG, 459.9, hit, 2, 0
1013, 8, T_Scon, T_Scon_DGRG, 599.3, hit, 2, 0
1014, 8, T_Scon, T_Scon_URLR, 458.8, hit, 1, 0
1015, 8, T_Scon, T_Scon_URLR, 454.2, hit, 1, 0
1016, 8, T_Scon, T_Scon_DGRG, 485.6, hit, 2, 0
1017, 8, T_Sinc, T_Sinc_DRLR, 489.1, hit, 1, 0
1018, 8, T_Scon, T_Scon_URLR, 412.5, hit, 1, 0
1019, 8, T_Scon, T_Scon_DGRG, 447.9, hit, 2, 0
1020, 8, T_Scon, T_Scon_URLR, 383.4, hit, 1, 0
1021, 8, T_Scon, T_Scon_URLR, 462.8, hit, 1, 0
1022, 8, T_Scon, T_Scon_DGRG, 362.2, hit, 2, 0
1023, 8, T_Scon, T_Scon_URLR, 297.7, hit, 1, 0
1024, 8, T_Sinc, T_Sinc_UGRG, 501.1, hit, 2, 0
1025, 8, T_Scon, T_Scon_DGRG, 432.6, hit, 2, 0
1026, 8, T_Scon, T_Scon_DGRG, 580.0, hit, 2, 0
1027, 8, T_Scon, T_Scon_DGRG, 303.4, hit, 2, 0
1028, 8, T_Scon, T_Scon_DGRG, 326.9, hit, 2, 0
1029, 8, T_Sinc, T_Sinc_DRLR, 362.3, hit, 1, 0
1030, 8, T_Scon, T_Scon_URLR, 377.8, incorrect, 2, 1
1031, 8, T_Scon, T_Scon_URLR, 561.2, hit, 1, 0
1032, 8, T_Scon, T_Scon_DGRG, 432.6, hit, 2, 0
1033, 8, T_Scon, T_Scon_DGRG, 340.1, hit, 2, 0
1034, 8, T_Sinc, T_Sinc_DRLR, 379.6, hit, 1, 0
1035, 8, T_Scon, T_Scon_DGRG, 398.9, hit, 2, 0
1036, 8, T_Scon, T_Scon_URLR, 346.4, hit, 1, 0
1037, 8, T_Scon, T_Scon_URLR, 285.8, hit, 1, 0
1038, 8, T_Sinc, T_Sinc_UGRG, 473.3, hit, 2, 0
1039, 8, T_Scon, T_Scon_DGRG, 400.7, hit, 2, 0
1040, 8, T_Sinc, T_Sinc_UGRG, 412.2, hit, 2, 0
1041, 8, T_Scon, T_Scon_URLR, 419.6, hit, 1, 0
1042, 8, T_Sinc, T_Sinc_DRLR, 399.1, hit, 1, 0
1043, 8, T_Sinc, T_Sinc_DRLR, 398.4, hit, 1, 0
1044, 8, T_Scon, T_Scon_URLR, 401.9, hit, 1, 0
1045, 8, T_Scon, T_Scon_DGRG, 529.2, hit, 2, 0
1046, 8, T_Scon, T_Scon_DGRG, 428.5, hit, 2, 0
1047, 8, T_Scon, T_Scon_DGRG, 399.9, hit, 2, 0
1048, 8, T_Scon, T_Scon_DGRG, 395.4, hit, 2, 0
1049, 8, T_Scon, T_Scon_DGRG, 358.8, hit, 2, 0
1050, 8, T_Sinc, T_Sinc_DRLR, 338.2, hit, 1, 0
1051, 8, T_Scon, T_Scon_URLR, 373.7, hit, 1, 0
1052, 8, T_Scon, T_Scon_URLR, 361.1, hit, 1, 0
1053, 8, T_Scon, T_Scon_DGRG, 464.5, hit, 2, 0
1054, 8, T_Scon, T_Scon_DGRG, 340.0, hit, 2, 0
1055, 8, T_Scon, T_Scon_DGRG, 347.4, hit, 2, 0
1056, 8, T_Scon, T_Scon_URLR, 390.9, hit, 1, 0
1057, 8, T_Scon, T_Scon_URLR, 442.3, hit, 1, 0
1058, 8, T_Scon, T_Scon_DGRG, 401.7, hit, 2, 0
1059, 8, T_Sinc, T_Sinc_UGRG, 629.2, hit, 2, 0
1060, 8, T_Scon, T_Scon_URLR, 488.6, hit, 1, 0
1061, 8, T_Scon, T_Scon_DGRG, 536.0, hit, 2, 0
1062, 8, T_Scon, T_Scon_URLR, 427.5, hit, 1, 0
1063, 8, T_Scon, T_Scon_URLR, 430.9, hit, 1, 0
1064, 8, T_Sinc, T_Sinc_UGRG, 402.3, hit, 2, 0
1065, 8, T_Scon, T_Scon_URLR, 329.8, hit, 1, 0
1066, 8, T_Scon, T_Scon_URLR, 429.2, hit, 1, 0
1067, 8, T_Scon, T_Scon_URLR, 360.6, hit, 1, 0
1068, 8, T_Scon, T_Scon_DGRG, 352.1, hit, 2, 0
1069, 8, T_Sinc, T_Sinc_DRLR, 491.5, hit, 1, 0
1070, 8, T_Scon, T_Scon_DGRG, 395.0, hit, 2, 0
1071, 8, T_Scon, T_Scon_DGRG, 374.4, hit, 2, 0
1072, 8, T_Scon, T_Scon_DGRG, 589.8, hit, 2, 0
1073, 8, T_Scon, T_Scon_URLR, 441.3, hit, 1, 0
1074, 8, T_Scon, T_Scon_URLR, 500.8, hit, 1, 0
1075, 8, T_Scon, T_Scon_URLR, 420.1, hit, 1, 0
1076, 8, T_Scon, T_Scon_URLR, 375.6, hit, 1, 0
1077, 8, T_Scon, T_Scon_DGRG, 443.1, hit, 2, 0
1078, 8, T_Scon, T_Scon_URLR, 438.5, hit, 1, 0
1079, 8, T_Scon, T_Scon_URLR, 333.9, hit, 1, 0
1080, 8, T_Scon, T_Scon_DGRG, 353.4, hit, 2, 0
1081, 8, T_Sinc, T_Sinc_UGRG, 420.6, hit, 2, 0
1082, 8, T_Scon, T_Scon_URLR, 431.9, hit, 1, 0
1083, 8, T_Scon, T_Scon_DGRG, 403.4, hit, 2, 0
1084, 8, T_Scon, T_Scon_DGRG, 446.8, hit, 2, 0
1085, 8, T_Sinc, T_Sinc_UGRG, 482.3, hit, 2, 0
1086, 8, T_Scon, T_Scon_URLR, 461.7, hit, 1, 0
1087, 8, T_Scon, T_Scon_URLR, 389.1, hit, 1, 0
1088, 8, T_Scon, T_Scon_DGRG, 536.6, hit, 2, 0
1089, 8, T_Sinc, T_Sinc_DRLR, 472.0, hit, 1, 0
1090, 8, T_Scon, T_Scon_DGRG, 631.4, hit, 2, 0
1091, 8, T_Scon, T_Scon_DGRG, 334.9, hit, 2, 0
1092, 8, T_Scon, T_Scon_DGRG, 538.4, hit, 2, 0
1093, 8, T_Sinc, T_Sinc_DRLR, 657.7, hit, 1, 0
1094, 8, T_Sinc, T_Sinc_DRLR, 537.2, hit, 1, 0
1095, 8, T_Sinc, T_Sinc_UGRG, 376.7, hit, 2, 0
1096, 8, T_Scon, T_Scon_DGRG, 388.1, hit, 2, 0
1097, 8, T_Scon, T_Scon_URLR, 371.5, hit, 1, 0
1098, 8, T_Scon, T_Scon_DGRG, 362.9, hit, 2, 0
1099, 8, T_Scon, T_Scon_DGRG, 446.4, hit, 2, 0
1100, 8, T_Scon, T_Scon_URLR, 341.9, hit, 1, 0
1101, 8, T_Scon, T_Scon_URLR, 353.2, hit, 1, 0
1102, 8, T_Sinc, T_Sinc_DRLR, 396.7, hit, 1, 0
1103, 8, T_Scon, T_Scon_URLR, 340.2, hit, 1, 0
1104, 8, T_Scon, T_Scon_URLR, 387.6, hit, 1, 0
1105, 8, T_Sinc, T_Sinc_UGRG, 527.0, hit, 2, 0
1106, 8, T_Scon, T_Scon_DGRG, 530.5, hit, 2, 0
1107, 8, T_Scon, T_Scon_DGRG, 389.9, hit, 2, 0
1108, 8, T_Scon, T_Scon_DGRG, 321.4, hit, 2, 0
1109, 8, T_Sinc, T_Sinc_UGRG, 396.8, hit, 2, 0
1110, 8, T_Scon, T_Scon_URLR, 420.2, hit, 1, 0
1111, 8, T_Scon, T_Scon_URLR, 367.7, incorrect, 2, 1
1112, 8, T_Scon, T_Scon_URLR, 399.1, hit, 1, 0
1113, 8, T_Scon, T_Scon_URLR, 362.5, hit, 1, 0
1114, 8, T_Scon, T_Scon_URLR, 390.0, hit, 1, 0
1115, 8, T_Scon, T_Scon_URLR, 329.5, hit, 1, 0
1116, 8, T_Scon, T_Scon_DGRG, 480.8, hit, 2, 0
1117, 8, T_Sinc, T_Sinc_UGRG, 344.1, hit, 2, 0
1118, 8, T_Scon, T_Scon_URLR, 403.5, hit, 1, 0
1119, 8, T_Scon, T_Scon_DGRG, 462.8, hit, 2, 0
1120, 8, T_Scon, T_Scon_DGRG, 362.3, hit, 2, 0
1121, 8, T_Sinc, T_Sinc_UGRG, 373.8, hit, 2, 0
1122, 8, T_Scon, T_Scon_URLR, 401.2, hit, 1, 0
1123, 8, T_Scon, T_Scon_URLR, 484.6, hit, 1, 0
1124, 8, T_Scon, T_Scon_DGRG, 408.1, hit, 2, 0
1125, 8, T_Scon, T_Scon_URLR, 347.5, hit, 1, 0
1126, 8, T_Scon, T_Scon_DGRG, 355.0, incorrect, 1, 1
1127, 8, T_Scon, T_Scon_URLR, 394.4, hit, 1, 0
1128, 8, T_Sinc, T_Sinc_DRLR, 693.8, hit, 1, 0
1129, 8, T_Sinc, T_Sinc_UGRG, 337.3, hit, 2, 0
1130, 8, T_Sinc, T_Sinc_UGRG, 364.7, hit, 2, 0
1131, 8, T_Scon, T_Scon_URLR, 396.2, hit, 1, 0
1132, 8, T_Scon, T_Scon_URLR, 443.6, hit, 1, 0
1133, 8, T_Sinc, T_Sinc_DRLR, 399.0, hit, 1, 0
1134, 8, T_Sinc, T_Sinc_DRLR, 342.5, hit, 1, 0
1135, 8, T_Scon, T_Scon_DGRG, 385.8, hit, 2, 0
1136, 8, T_Scon, T_Scon_DGRG, 357.3, hit, 2, 0
1137, 8, T_Scon, T_Scon_DGRG, 384.8, hit, 2, 0
1138, 8, T_Scon, T_Scon_URLR, 352.2, hit, 1, 0
1139, 8, T_Scon, T_Scon_URLR, 507.6, hit, 1, 0
1140, 8, T_Scon, T_Scon_DGRG, 471.1, hit, 2, 0
1141, 8, T_Scon, T_Scon_URLR, 370.6, hit, 1, 0
1142, 8, T_Sinc, T_Sinc_UGRG, 357.9, hit, 2, 0
1143, 8, T_Sinc, T_Sinc_DRLR, 369.4, hit, 1, 0
1144, 8, T_Scon, T_Scon_URLR, 356.8, hit, 1, 0
1145, 8, T_Sinc, T_Sinc_UGRG, 336.3, hit, 2, 0
1146, 8, T_Scon, T_Scon_URLR, 443.7, hit, 1, 0
1147, 8, T_Sinc, T_Sinc_DRLR, 403.1, hit, 1, 0
1148, 8, T_Scon, T_Scon_DGRG, 494.6, hit, 2, 0
1149, 8, T_Scon, T_Scon_DGRG, 798.0, hit, 2, 2
1150, 8, T_Scon, T_Scon_DGRG, 385.4, hit, 2, 0
1151, 8, T_Scon, T_Scon_DGRG, 412.9, hit, 2, 0
1152, 8, T_Sinc, T_Sinc_DRLR, 396.4, hit, 1, 0
1153, 9, T_Sinc, T_Sinc_UGRG, 499.9, hit, 2, 0
1154, 9, T_Scon, T_Scon_DGRG, 423.3, hit, 2, 0
1155, 9, T_Sinc, T_Sinc_DRLR, 446.7, hit, 1, 0
1156, 9, T_Scon, T_Scon_DGRG, 378.1, hit, 2, 0
1157, 9, T_Sinc, T_Sinc_DRLR, 445.6, hit, 1, 0
1158, 9, T_Scon, T_Scon_DGRG, 553.1, hit, 2, 0
1159, 9, T_Scon, T_Scon_URLR, 580.4, hit, 1, 0
1160, 9, T_Scon, T_Scon_DGRG, 363.9, hit, 2, 0
1161, 9, T_Scon, T_Scon_DGRG, 303.4, hit, 2, 0
1162, 9, T_Scon, T_Scon_URLR, 378.8, hit, 1, 0
1163, 9, T_Scon, T_Scon_URLR, 330.2, incorrect, 2, 1
1164, 9, T_Sinc, T_Sinc_UGRG, 333.7, hit, 2, 0
1165, 9, T_Scon, T_Scon_URLR, 409.1, hit, 1, 0
1166, 9, T_Sinc, T_Sinc_DRLR, 716.5, hit, 1, 2
1167, 9, T_Scon, T_Scon_DGRG, 388.0, hit, 2, 0
1168, 9, T_Scon, T_Scon_URLR, 439.4, hit, 1, 0
1169, 9, T_Scon, T_Scon_URLR, 398.8, hit, 1, 0
1170, 9, T_Scon, T_Scon_URLR, 338.2, hit, 1, 0
1171, 9, T_Scon, T_Scon_URLR, 297.7, hit, 1, 0
1172, 9, T_Scon, T_Scon_URLR, 357.2, hit, 1, 0
1173, 9, T_Scon, T_Scon_URLR, 332.6, hit, 1, 0
1174, 9, T_Scon, T_Scon_DGRG, 324.0, hit, 2, 0
1175, 9, T_Scon, T_Scon_URLR, 383.5, hit, 1, 0
1176, 9, T_Sinc, T_Sinc_DRLR, 378.9, hit, 1, 0
1177, 9, T_Scon, T_Scon_DGRG, 414.3, hit, 2, 0
1178, 9, T_Scon, T_Scon_URLR, 625.8, hit, 1, 0
1179, 9, T_Sinc, T_Sinc_DRLR, 373.2, incorrect, 2, 1
1180, 9, T_Scon, T_Scon_URLR, 392.6, hit, 1, 0
1181, 9, T_Scon, T_Scon_DGRG, 644.1, hit, 2, 0
1182, 9, T_Scon, T_Scon_DGRG, 391.5, hit, 2, 0
1183, 9, T_Scon, T_Scon_URLR, 347.0, hit, 1, 0
1184, 9, T_Scon, T_Scon_DGRG, 386.3, incorrect, 1, 1
1185, 9, T_Sinc, T_Sinc_UGRG, 381.8, hit, 2, 0
1186, 9, T_Scon, T_Scon_URLR, 413.3, hit, 1, 0
1187, 9, T_Scon, T_Scon_URLR, 372.7, hit, 1, 0
1188, 9, T_Scon, T_Scon_URLR, 348.1, hit, 1, 0
1189, 9, T_Scon, T_Scon_DGRG, 407.4, hit, 2, 0
1190, 9, T_Scon, T_Scon_URLR, 530.8, hit, 1, 0
1191, 9, T_Sinc, T_Sinc_UGRG, 462.1, hit, 2, 0
1192, 9, T_Sinc, T_Sinc_DRLR, 417.6, hit, 1, 0
1193, 9, T_Sinc, T_Sinc_DRLR, 517.1, hit, 1, 0
1194, 9, T_Scon, T_Scon_URLR, 392.4, hit, 1, 0
1195, 9, T_Scon, T_Scon_URLR, 351.9, hit, 1, 0
1196, 9, T_Scon, T_Scon_URLR, 331.4, hit, 1, 0
1197, 9, T_Scon, T_Scon_URLR, 430.8, hit, 1, 0
1198, 9, T_Scon, T_Scon_URLR, 366.2, hit, 1, 0
1199, 9, T_Scon, T_Scon_URLR, 385.7, hit, 1, 0
1200, 9, T_Sinc, T_Sinc_UGRG, 373.1, hit, 2, 0
1201, 9, T_Scon, T_Scon_DGRG, 416.5, hit, 2, 0
1202, 9, T_Scon, T_Scon_URLR, 563.9, hit, 1, 0
1203, 9, T_Scon, T_Scon_DGRG, 415.4, hit, 2, 0
1204, 9, T_Scon, T_Scon_DGRG, 434.9, hit, 2, 0
1205, 9, T_Sinc, T_Sinc_UGRG, 350.3, hit, 2, 0
1206, 9, T_Scon, T_Scon_URLR, 421.7, hit, 1, 0
1207, 9, T_Scon, T_Scon_URLR, 353.2, hit, 1, 0
1208, 9, T_Scon, T_Scon_URLR, 356.6, hit, 1, 0
1209, 9, T_Sinc, T_Sinc_DRLR, 408.0, hit, 1, 0
1210, 9, T_Scon, T_Scon_URLR, 339.5, hit, 1, 0
1211, 9, T_Scon, T_Scon_URLR, 330.9, hit, 1, 0
1212, 9, T_Scon, T_Scon_DGRG, 398.4, hit, 2, 0
1213, 9, T_Sinc, T_Sinc_UGRG, 457.8, hit, 2, 0
1214, 9, T_Scon, T_Scon_DGRG, 413.2, hit, 2, 0
1215, 9, T_Sinc, T_Sinc_DRLR, 608.7, hit, 1, 0
1216, 9, T_Scon, T_Scon_URLR, 320.1, hit, 1, 0
1217, 9, T_Scon, T_Scon_DGRG, 515.5, hit, 2, 0
1218, 9, T_Scon, T_Scon_DGRG, 415.0, hit, 2, 0
1219, 9, T_Sinc, T_Sinc_UGRG, 398.4, hit, 2, 0
1220, 9, T_Scon, T_Scon_URLR, 365.8, hit, 1, 0
1221, 9, T_Sinc, T_Sinc_UGRG, 401.3, incorrect, 1, 1
1222, 9, T_Scon, T_Scon_URLR, 432.7, hit, 1, 0
1223, 9, T_Sinc, T_Sinc_UGRG, 412.2, hit, 2, 0
1224, 9, T_Scon, T_Scon_DGRG, 335.7, hit, 2, 0
1225, 9, T_Scon, T_Scon_DGRG, 326.8, hit, 2, 0
1226, 9, T_Sinc, T_Sinc_DRLR, 450.2, hit, 1, 0
1227, 9, T_Scon, T_Scon_URLR, 461.6, hit, 1, 0
1228, 9, T_Scon, T_Scon_URLR, 309.1, hit, 1, 0
1229, 9, T_Sinc, T_Sinc_DRLR, 376.5, hit, 1, 0
1230, 9, T_Sinc, T_Sinc_UGRG, 604.0, hit, 2, 0
1231, 9, T_Sinc, T_Sinc_UGRG, 431.4, hit, 2, 0
1232, 9, T_Scon, T_Scon_URLR, 982.8, hit, 1, 2
1233, 9, T_Scon, T_Scon_URLR, 430.3, hit, 1, 0
1234, 9, T_Scon, T_Scon_DGRG, 529.7, hit, 2, 0
1235, 9, T_Scon, T_Scon_URLR, 405.1, hit, 1, 0
1236, 9, T_Sinc, T_Sinc_DRLR, 804.6, hit, 1, 2
1237, 9, T_Scon, T_Scon_DGRG, 376.0, hit, 2, 0
1238, 9, T_Scon, T_Scon_DGRG, 491.5, hit, 2, 0
1239, 9, T_Scon, T_Scon_URLR, 402.9, hit, 1, 0
1240, 9, T_Scon, T_Scon_DGRG, 550.3, hit, 2, 0
1241, 9, T_Scon, T_Scon_URLR, 409.8, hit, 1, 0
1242, 9, T_Scon, T_Scon_DGRG, 417.3, hit, 2, 0
1243, 9, T_Scon, T_Scon_DGRG, 540.6, hit, 2, 0
1244, 9, T_Sinc, T_Sinc_DRLR, 432.1, hit, 1, 0
1245, 9, T_Scon, T_Scon_URLR, 459.6, hit, 1, 0
1246, 9, T_Scon, T_Scon_URLR, 399.0, hit, 1, 0
1247, 9, T_Scon, T_Scon_URLR, 370.4, hit, 1, 0
1248, 9, T_Scon, T_Scon_DGRG, 541.8, hit, 2, 0
1249, 9, T_Scon, T_Scon_URLR, 385.3, hit, 1, 0
1250, 9, T_Scon, T_Scon_DGRG, 468.8, hit, 2, 0
1251, 9, T_Scon, T_Scon_DGRG, 536.2, hit, 2, 0
1252, 9, T_Scon, T_Scon_DGRG, 447.6, hit, 2, 0
1253, 9, T_Sinc, T_Sinc_DRLR, 503.1, hit, 1, 0
1254, 9, T_Scon, T_Scon_DGRG, 346.5, hit, 2, 0
1255, 9, T_Sinc, T_Sinc_DRLR, 526.0, hit, 1, 0
1256, 9, T_Scon, T_Scon_DGRG, 461.3, hit, 2, 0
1257, 9, T_Scon, T_Scon_DGRG, 432.8, hit, 2, 0
1258, 9, T_Sinc, T_Sinc_UGRG, 624.3, hit, 2, 0
1259, 9, T_Scon, T_Scon_DGRG, 411.6, hit, 2, 0
1260, 9, T_Scon, T_Scon_DGRG, 379.1, hit, 2, 0
1261, 9, T_Sinc, T_Sinc_DRLR, 486.4, hit, 1, 0
1262, 9, T_Scon, T_Scon_DGRG, 377.8, hit, 2, 0
1263, 9, T_Scon, T_Scon_DGRG, 589.1, hit, 2, 0
1264, 9, T_Sinc, T_Sinc_UGRG, 408.6, hit, 2, 0
1265, 9, T_Scon, T_Scon_DGRG, 372.0, hit, 2, 0
1266, 9, T_Scon, T_Scon_URLR, 399.5, hit, 1, 0
1267, 9, T_Scon, T_Scon_DGRG, 522.9, hit, 2, 0
1268, 9, T_Scon, T_Scon_URLR, 326.4, hit, 1, 0
1269, 9, T_Scon, T_Scon_DGRG, 373.8, hit, 2, 0
1270, 9, T_Scon, T_Scon_DGRG, 381.3, hit, 2, 0
1271, 9, T_Scon, T_Scon_URLR, 384.6, hit, 1, 0
1272, 9, T_Scon, T_Scon_URLR, 348.1, hit, 1, 0
1273, 9, T_Scon, T_Scon_DGRG, 363.6, hit, 2, 0
1274, 9, T_Scon, T_Scon_DGRG, 351.0, hit, 2, 0
1275, 9, T_Sinc, T_Sinc_DRLR, 410.4, hit, 1, 0
1276, 9, T_Scon, T_Scon_URLR, 369.9, hit, 1, 0
1277, 9, T_Scon, T_Scon_URLR, 313.3, hit, 1, 0
1278, 9, T_Scon, T_Scon_URLR, 220.8, incorrect, 2, 1
1279, 9, T_Sinc, T_Sinc_UGRG, 348.2, incorrect, 1, 1
1280, 9, T_Scon, T_Scon_URLR, 403.6, hit, 1, 0
1281, 9, T_Scon, T_Scon_DGRG, 447.1, hit, 2, 0
1282, 9, T_Sinc, T_Sinc_UGRG, 378.6, hit, 2, 0
1283, 9, T_Sinc, T_Sinc_UGRG, 337.9, hit, 2, 0
1284, 9, T_Sinc, T_Sinc_DRLR, 457.4, hit, 1, 0
1285, 9, T_Scon, T_Scon_DGRG, 436.8, hit, 2, 0
1286, 9, T_Scon, T_Scon_DGRG, 560.2, hit, 2, 0
1287, 9, T_Scon, T_Scon_DGRG, 607.7, hit, 2, 0
1288, 9, T_Scon, T_Scon_DGRG, 407.1, hit, 2, 0
1289, 9, T_Scon, T_Scon_URLR, 378.6, hit, 1, 0
1290, 9, T_Scon, T_Scon_DGRG, 354.0, hit, 2, 0
1291, 9, T_Scon, T_Scon_DGRG, 381.4, hit, 2, 0
1292, 9, T_Scon, T_Scon_DGRG, 440.9, hit, 2, 0
1293, 9, T_Scon, T_Scon_DGRG, 356.3, hit, 2, 0
1294, 9, T_Sinc, T_Sinc_UGRG, 307.7, hit, 2, 0
1295, 9, T_Scon, T_Scon_DGRG, 327.2, hit, 2, 0
1296, 9, T_Scon, T_Scon_URLR, 670.6, hit, 1, 0
