trial_index, block, condition, full_condition_code, RT, response_type, response_key, error_outlier
1, 1, T_Sinc, T_Sinc_DGLG, 475.0, hit, 1, 0
2, 1, T_Scon, T_Scon_UGLG, 506.4, hit, 1, 0
3, 1, T_Sinc, T_Sinc_DGLG, 421.7, hit, 1, 0
4, 1, T_Scon, T_Scon_DRRR, 357.2, hit, 2, 0
5, 1, T_Sinc, T_Sinc_URRR, 504.7, hit, 2, 0
6, 1, T_Sinc, T_Sinc_DGLG, 316.1, hit, 1, 0
7, 1, T_Sinc, T_Sinc_URRR, 371.5, incorrect, 1, 1
8, 1, T_Sinc, T_Sinc_DGLG, 555.0, hit, 1, 0
9, 1, T_Scon, T_Scon_DRRR, 494.4, hit, 2, 0
10, 1, T_Sinc, T_Sinc_DGLG, 457.9, hit, 1, 0
11, 1, T_Sinc, T_Sinc_URRR, 541.3, hit, 2, 0
12, 1, T_Scon, T_Scon_UGLG, 552.8, hit, 1, 0
13, 1, T_Sinc, T_Sinc_URRR, 688.2, hit, 2, 0
14, 1, T_Sinc, T_Sinc_URRR, 523.6, hit, 2, 0
15, 1, T_Sinc, T_Sinc_DGLG, 519.1, hit, 1, 0
16, 1, T_Scon, T_Scon_DRRR, 386.5, hit, 2, 0
17, 1, T_Scon, T_Scon_UGLG, 569.9, hit, 1, 0
18, 1, T_Sinc, T_Sinc_DGLG, 481.3, hit, 1, 0
19, 1, T_Sinc, T_Sinc_URRR, 508.8, hit, 2, 0
20, 1, T_Sinc, T_Sinc_URRR, 508.3, hit, 2, 0
21, 1, T_Scon, T_Scon_DRRR, 495.7, hit, 2, 0
22, 1, T_Sinc, T_Sinc_URRR, 539.1, hit, 2, 0
23, 1, T_Sinc, T_Sinc_DGLG, 346.6, hit, 1, 0
24, 1, T_Sinc, T_Sinc_URRR, 426.0, hit, 2, 0
25, 1, T_Sinc, T_Sinc_DGLG, 425.5, hit, 1, 0
26, 1, T_Sinc, T_Sinc_URRR, 656.8, hit, 2, 0
27, 1, T_Scon, T_Scon_UGLG, 652.3, hit, 1, 0
28, 1, T_Sinc, T_Sinc_DGLG, 475.7, hit, 1, 0
29, 1, T_Scon, T_Scon_DRRR, 439.2, hit, 2, 0
30, 1, T_Sinc, T_Sinc_DGLG, 482.6, hit, 1, 0
31, 1, T_Sinc, T_Sinc_URRR, 518.1, hit, 2, 0
32, 1, T_Sinc, T_Sinc_URRR, 457.5, hit, 2, 0
33, 1, T_Sinc, T_Sinc_DGLG, 293.0, hit, 1, 0
34, 1, T_Sinc, T_Sinc_URRR, 344.4, hit, 2, 0
35, 1, T_Sinc, T_Sinc_DGLG, 463.8, hit, 1, 0
36, 1, T_Sinc, T_Sinc_URRR, 655.2, hit, 2, 0
37, 1, T_Sinc, T_Sinc_URRR, 438.5, hit, 2, 0
38, 1, T_Scon, T_Scon_UGLG, 417.9, hit, 1, 0
39, 1, T_Scon, T_Scon_DRRR, 629.3, hit, 2, 0
40, 1, T_Sinc, T_Sinc_DGLG, 400.7, hit, 1, 0
41, 1, T_Sinc, T_Sinc_URRR, 388.2, hit, 2, 0
42, 1, T_Sinc, T_Sinc_URRR, 455.7, hit, 2, 0
43, 1, T_Sinc, T_Sinc_DGLG, 371.1, hit, 1, 0
44, 1, T_Sinc, T_Sinc_DGLG, 546.5, hit, 1, 0
45, 1, T_Sinc, T_Sinc_URRR, 481.9, hit, 2, 0
46, 1, T_Scon, T_Scon_DRRR, 617.3, hit, 2, 0
47, 1, T_Sinc, T_Sinc_DGLG, 628.8, hit, 1, 0
48, 1, T_Sinc, T_Sinc_DGLG, 508.2, hit, 1, 0
49, 1, T_Sinc, T_Sinc_URRR, 411.7, hit, 2, 0
50, 1, T_Scon, T_Scon_UGLG, 507.1, hit, 1, 0
51, 1, T_Sinc, T_Sinc_URRR, 498.6, hit, 2, 0
52, 1, T_Sinc, T_Sinc_URRR, 486.0, hit, 2, 0
53, 1, T_Sinc, T_Sinc_URRR, 449.5, hit, 2, 0
54, 1, T_Scon, T_Scon_DRRR, 428.9, hit, 2, 0
55, 1, T_Sinc, T_Sinc_URRR, 504.3, hit, 2, 0
56, 1, T_Sinc, T_Sinc_DGLG, 347.7, hit, 1, 0
57, 1, T_Scon, T_Scon_UGLG, 431.1, hit, 1, 0
58, 1, T_Sinc, T_Sinc_DGLG, 334.6, hit, 1, 0
59, 1, T_Scon, T_Scon_UGLG, 422.0, hit, 1, 0
60, 1, T_Sinc, T_Sinc_DGLG, 497.5, hit, 1, 0
61, 1, T_Scon, T_Scon_DRRR, 361.0, hit, 2, 0
62, 1, T_Sinc, T_Sinc_URRR, 508.4, hit, 2, 0
63, 1, T_Sinc, T_Sinc_DGLG, 431.8, hit, 1, 0
64, 1, T_Sinc, T_Sinc_DGLG, 323.2, hit, 1, 0
65, 1, T_Sinc, T_Sinc_URRR, 366.6, hit, 2, 0
66, 1, T_Sinc, T_Sinc_URRR, 518.1, hit, 2, 0
67, 1, T_Sinc, T_Sinc_URRR, 397.5, hit, 2, 0
68, 1, T_Sinc, T_Sinc_URRR, 357.0, hit, 2, 0
69, 1, T_Sinc, T_Sinc_URRR, 384.4, hit, 2, 0
70, 1, T_Sinc, T_Sinc_URRR, 355.9, hit, 2, 0
71, 1, T_Scon, T_Scon_DRRR, 359.3, hit, 2, 0
72, 1, T_Scon, T_Scon_DRRR, 378.8, hit, 2, 0
73, 1, T_Scon, T_Scon_DRRR, 469.9, hit, 2, 0
74, 1, T_Sinc, T_Sinc_URRR, 401.3, hit, 2, 0
75, 1, T_Scon, T_Scon_UGLG, 320.8, hit, 1, 0
76, 1, T_Scon, T_Scon_UGLG, 404.2, hit, 1, 0
77, 1, T_Sinc, T_Sinc_URRR, 351.7, hit, 2, 0
78, 1, T_Sinc, T_Sinc_URRR, 455.1, hit, 2, 0
79, 1, T_Sinc, T_Sinc_DGLG, 362.5, hit, 1, 0
80, 1, T_Scon, T_Scon_DRRR, 381.9, incorrect, 1, 1
81, 1, T_Sinc, T_Sinc_DGLG, 333.4, incorrect, 2, 1
82, 1, T_Sinc, T_Sinc_URRR, 472.8, hit, 2, 0
83, 1, T_Sinc, T_Sinc_DGLG, 456.3, hit, 1, 0
84, 1, T_Sinc, T_Sinc_DGLG, 363.7, hit, 1, 0
85, 1, T_Sinc, T_Sinc_URRR, 435.2, hit, 2, 0
86, 1, T_Sinc, T_Sinc_URRR, 690.6, hit, 2, 0
87, 1, T_Scon, T_Scon_UGLG, 470.1, hit, 1, 0
88, 1, T_Sinc, T_Sinc_DGLG, 1041.4, hit, 1, 2
89, 1, T_Sinc, T_Sinc_DGLG, 652.8, hit, 1, 0
90, 1, T_Sinc, T_Sinc_URRR, 496.3, hit, 2, 0
91, 1, T_Scon, T_Scon_UGLG, 555.7, hit, 1, 0
92, 1, T_Scon, T_Scon_DRRR, 511.2, hit, 2, 0
93, 1, T_Sinc, T_Sinc_DGLG, 542.6, hit, 1, 0
94, 1, T_Sinc, T_Sinc_DGLG, 394.1, hit, 1, 0
95, 1, T_Sinc, T_Sinc_DGLG, 429.5, hit, 1, 0
96, 1, T_Sinc, T_Sinc_URRR, 545.0, hit, 2, 0
97, 1, T_Scon, T_Scon_UGLG, 436.4, hit, 1, 0
98, 1, T_Sinc, T_Sinc_DGLG, 623.8, hit, 1, 0
99, 1, T_Sinc, T_Sinc_DGLG, 551.2, hit, 1, 0
100, 1, T_Scon, T_Scon_UGLG, 466.7, hit, 1, 0
101, 1, T_Sinc, T_Sinc_DGLG, 362.1, hit, 1, 0
102, 1, T_Sinc, T_Sinc_DGLG, 469.6, hit, 1, 0
103, 1, T_Sinc, T_Sinc_DGLG, 337.0, hit, 1, 0
104, 1, T_Sinc, T_Sinc_DGLG, 340.5, hit, 1, 0
105, 1, T_Sinc, T_Sinc_DGLG, 431.9, hit, 1, 0
106, 1, T_Scon, T_Scon_UGLG, 391.4, hit, 1, 0
107, 1, T_Scon, T_Scon_DRRR, 410.7, hit, 2, 0
108, 1, T_Sinc, T_Sinc_DGLG, 398.2, hit, 1, 0
109, 1, T_Scon, T_Scon_UGLG, 421.4, hit, 1, 0
110, 1, T_Scon, T_Scon_UGLG, 408.8, hit, 1, 0
111, 1, T_Sinc, T_Sinc_URRR, 460.2, hit, 2, 0
112, 1, T_Sinc, T_Sinc_URRR, 447.6, hit, 2, 0
113, 1, T_Sinc, T_Sinc_URRR, 447.1, hit, 2, 0
114, 1, T_Sinc, T_Sinc_DGLG, 430.5, hit, 1, 0
115, 1, T_Sinc, T_Sinc_DGLG, 378.0, hit, 1, 0
116, 1, T_Sinc, T_Sinc_URRR, 437.4, hit, 2, 0
117, 1, T_Sinc, T_Sinc_URRR, 424.9, hit, 2, 0
118, 1, T_Scon, T_Scon_DRRR, 492.3, hit, 2, 0
119, 1, T_Sinc, T_Sinc_DGLG, 375.8, hit, 1, 0
120, 1, T_Sinc, T_Sinc_URRR, 439.2, hit, 2, 0
121, 1, T_Sinc, T_Sinc_URRR, 442.6, hit, 2, 0
122, 1, T_Sinc, T_Sinc_DGLG, 358.0, hit, 1, 0
123, 1, T_Sinc, T_Sinc_DGLG, 425.4, hit, 1, 0
124, 1, T_Sinc, T_Sinc_DGLG, 336.9, hit, 1, 0
125, 1, T_Sinc, T_Sinc_DGLG, 380.3, hit, 1, 0
126, 1, T_Sinc, T_Sinc_DGLG, 375.8, hit, 1, 0
127, 1, T_Sinc, T_Sinc_URRR, 443.3, hit, 2, 0
128, 1, T_Sinc, T_Sinc_URRR, 374.7, hit, 2, 0
129, 1, T_Sinc, T_Sinc_DGLG, 490.1, hit, 1, 0
130, 1, T_Scon, T_Scon_UGLG, 541.5, hit, 1, 0
131, 1, T_Sinc, T_Sinc_DGLG, 476.9, hit, 1, 0
132, 1, T_Sinc, T_Sinc_DGLG, 300.4, hit, 1, 0
133, 1, T_Sinc, T_Sinc_URRR, 647.8, hit, 2, 0
134, 1, T_Sinc, T_Sinc_URRR, 455.3, hit, 2, 0
135, 1, T_Sinc, T_Sinc_URRR, 386.7, hit, 2, 0
136, 1, T_Sinc, T_Sinc_URRR, 518.2, hit, 2, 0
137, 1, T_Sinc, T_Sinc_DGLG, 545.6, hit, 1, 0
138, 1, T_Sinc, T_Sinc_DGLG, 1005.0, hit, 1, 2
139, 1, T_Sinc, T_Sinc_URRR, 492.5, hit, 2, 0
140, 1, T_Scon, T_Scon_DRRR, 648.0, hit, 2, 0
141, 1, T_Scon, T_Scon_DRRR, 459.4, hit, 2, 0
142, 1, T_Sinc, T_Sinc_URRR, 606.7, hit, 2, 0
143, 1, T_Sinc, T_Sinc_DGLG, 474.2, hit, 1, 0
144, 1, T_Sinc, T_Sinc_URRR, 497.6, hit, 2, 0
145, 2, T_Sinc, T_Sinc_URRR, 633.7, hit, 2, 0
146, 2, T_Sinc, T_Sinc_DGLG, 405.2, hit, 1, 0
147, 2, T_Sinc, T_Sinc_DGLG, 504.6, hit, 1, 0
148, 2, T_Sinc, T_Sinc_DGLG, 460.0, hit, 1, 0
149, 2, T_Sinc, T_Sinc_URRR, 499.5, hit, 2, 0
150, 2, T_Scon, T_Scon_DRRR, 430.9, hit, 2, 0
151, 2, T_Sinc, T_Sinc_URRR, 458.4, hit, 2, 0
152, 2, T_Sinc, T_Sinc_URRR, 413.7, hit, 2, 0
153, 2, T_Sinc, T_Sinc_URRR, 409.2, hit, 2, 0
154, 2, T_Scon, T_Scon_DRRR, 344.6, hit, 2, 0
155, 2, T_Sinc, T_Sinc_DGLG, 360.1, hit, 1, 0
156, 2, T_Sinc, T_Sinc_URRR, 611.5, hit, 2, 0
157, 2, T_Sinc, T_Sinc_URRR, 443.0, hit, 2, 0
158, 2, T_Sinc, T_Sinc_DGLG, 398.4, hit, 1, 0
159, 2, T_Sinc, T_Sinc_DGLG, 345.9, hit, 1, 0
160, 2, T_Sinc, T_Sinc_URRR, 525.2, hit, 2, 0
161, 2, T_Sinc, T_Sinc_URRR, 564.6, hit, 2, 0
162, 2, T_Sinc, T_Sinc_DGLG, 396.1, hit, 1, 0
163, 2, T_Scon, T_Scon_DRRR, 471.6, hit, 2, 0
164, 2, T_Sinc, T_Sinc_DGLG, 315.0, hit, 1, 0
165, 2, T_Scon, T_Scon_UGLG, 390.5, hit, 1, 0
166, 2, T_Sinc, T_Sinc_DGLG, 465.8, hit, 1, 0
167, 2, T_Sinc, T_Sinc_DGLG, 341.3, hit, 1, 0
168, 2, T_Sinc, T_Sinc_DGLG, 348.7, hit, 1, 0
169, 2, T_Scon, T_Scon_DRRR, 552.2, hit, 2, 0
170, 2, T_Sinc, T_Sinc_URRR, 399.6, hit, 2, 0
171, 2, T_Sinc, T_Sinc_URRR, 599.0, hit, 2, 0
172, 2, T_Sinc, T_Sinc_DGLG, 306.5, hit, 1, 0
173, 2, T_Sinc, T_Sinc_URRR, 453.9, hit, 2, 0
174, 2, T_Sinc, T_Sinc_URRR, 321.4, incorrect, 1, 1
175, 2, T_Sinc, T_Sinc_URRR, 512.8, hit, 2, 0
176, 2, T_Sinc, T_Sinc_DGLG, 436.2, hit, 1, 0
177, 2, T_Sinc, T_Sinc_DGLG, 603.6, hit, 1, 0
178, 2, T_Sinc, T_Sinc_URRR, 519.1, hit, 2, 0
179, 2, T_Scon, T_Scon_DRRR, 426.5, hit, 2, 0
180, 2, T_Sinc, T_Sinc_DGLG, 430.0, hit, 1, 0
181, 2, T_Sinc, T_Sinc_DGLG, 549.1, hit, 1, 0
182, 2, T_Sinc, T_Sinc_URRR, 472.5, hit, 2, 0
183, 2, T_Scon, T_Scon_UGLG, 452.0, hit, 1, 0
184, 2, T_Sinc, T_Sinc_URRR, 415.4, hit, 2, 0
185, 2, T_Sinc, T_Sinc_DGLG, 470.9, hit, 1, 0
186, 2, T_Scon, T_Scon_DRRR, 410.3, incorrect, 1, 1
187, 2, T_Sinc, T_Sinc_URRR, 601.8, hit, 2, 0
188, 2, T_Sinc, T_Sinc_DGLG, 425.3, hit, 1, 0
189, 2, T_Sinc, T_Sinc_DGLG, 436.7, hit, 1, 0
190, 2, T_Sinc, T_Sinc_DGLG, 404.0, hit, 1, 0
191, 2, T_Scon, T_Scon_DRRR, 359.5, hit, 2, 0
192, 2, T_Sinc, T_Sinc_URRR, 554.9, hit, 2, 0
193, 2, T_Sinc, T_Sinc_URRR, 430.4, hit, 2, 0
194, 2, T_Scon, T_Scon_DRRR, 505.8, hit, 2, 0
195, 2, T_Sinc, T_Sinc_DGLG, 497.3, hit, 1, 0
196, 2, T_Scon, T_Scon_DRRR, 412.7, hit, 2, 0
197, 2, T_Sinc, T_Sinc_DGLG, 440.2, hit, 1, 0
198, 2, T_Sinc, T_Sinc_DGLG, 555.6, hit, 1, 0
199, 2, T_Sinc, T_Sinc_DGLG, 379.1, hit, 1, 0
200, 2, T_Sinc, T_Sinc_DGLG, 362.5, hit, 1, 0
201, 2, T_Sinc, T_Sinc_URRR, 549.9, hit, 2, 0
202, 2, T_Scon, T_Scon_UGLG, 469.3, hit, 1, 0
203, 2, T_Sinc, T_Sinc_DGLG, 384.8, hit, 1, 0
204, 2, T_Scon, T_Scon_DRRR, 396.2, hit, 2, 0
205, 2, T_Scon, T_Scon_DRRR, 355.6, hit, 2, 0
206, 2, T_Sinc, T_Sinc_DGLG, 391.1, hit, 1, 0
207, 2, T_Sinc, T_Sinc_DGLG, 354.5, hit, 1, 0
208, 2, T_Sinc, T_Sinc_URRR, 518.0, hit, 2, 0
209, 2, T_Sinc, T_Sinc_DGLG, 581.4, hit, 1, 0
210, 2, T_Sinc, T_Sinc_DGLG, 752.9, hit, 1, 0
211, 2, T_Sinc, T_Sinc_URRR, 516.2, hit, 2, 0
212, 2, T_Sinc, T_Sinc_URRR, 503.7, hit, 2, 0
213, 2, T_Sinc, T_Sinc_URRR, 423.1, hit, 2, 0
214, 2, T_Scon, T_Scon_UGLG, 482.6, hit, 1, 0
215, 2, T_Sinc, T_Sinc_URRR, 458.0, hit, 2, 0
216, 2, T_Sinc, T_Sinc_DGLG, 381.5, hit, 1, 0
217, 2, T_Scon, T_Scon_UGLG, 364.7, hit, 1, 0
218, 2, T_Sinc, T_Sinc_URRR, 552.0, hit, 2, 0
219, 2, T_Sinc, T_Sinc_URRR, 479.5, hit, 2, 0
220, 2, T_Sinc, T_Sinc_DGLG, 546.9, hit, 1, 0
221, 2, T_Scon, T_Scon_DRRR, 646.4, hit, 2, 0
222, 2, T_Sinc, T_Sinc_DGLG, 505.8, hit, 1, 0
223, 2, T_Sinc, T_Sinc_URRR, 501.2, hit, 2, 0
224, 2, T_Sinc, T_Sinc_URRR, 504.7, hit, 2, 0
225, 2, T_Sinc, T_Sinc_URRR, 284.1, incorrect, 1, 1
226, 2, T_Scon, T_Scon_DRRR, 415.6, hit, 2, 0
227, 2, T_Sinc, T_Sinc_URRR, 611.0, hit, 2, 0
228, 2, T_Scon, T_Scon_UGLG, 454.5, hit, 1, 0
229, 2, T_Sinc, T_Sinc_URRR, 429.9, hit, 2, 0
230, 2, T_Sinc, T_Sinc_URRR, 421.4, incorrect, 1, 1
231, 2, T_Sinc, T_Sinc_URRR, 512.8, hit, 2, 0
232, 2, T_Sinc, T_Sinc_URRR, 384.3, hit, 2, 0
233, 2, T_Sinc, T_Sinc_DGLG, 435.7, hit, 1, 0
234, 2, T_Sinc, T_Sinc_URRR, 563.1, hit, 2, 0
235, 2, T_Sinc, T_Sinc_DGLG, 522.5, hit, 1, 0
236, 2, T_Sinc, T_Sinc_URRR, 422.0, hit, 2, 0
237, 2, T_Sinc, T_Sinc_DGLG, 513.4, hit, 1, 0
238, 2, T_Sinc, T_Sinc_DGLG, 684.8, hit, 1, 0
239, 2, T_Sinc, T_Sinc_DGLG, 372.3, hit, 1, 0
240, 2, T_Scon, T_Scon_UGLG, 387.8, hit, 1, 0
241, 2, T_Sinc, T_Sinc_URRR, 491.2, hit, 2, 0
242, 2, T_Sinc, T_Sinc_DGLG, 558.5, hit, 1, 0
243, 2, T_Sinc, T_Sinc_DGLG, 434.0, hit, 1, 0
244, 2, T_Sinc, T_Sinc_DGLG, 445.4, hit, 1, 0
245, 2, T_Sinc, T_Sinc_DGLG, 432.9, hit, 1, 0
246, 2, T_Scon, T_Scon_UGLG, 364.3, hit, 1, 0
247, 2, T_Scon, T_Scon_UGLG, 359.8, hit, 1, 0
248, 2, T_Sinc, T_Sinc_URRR, 627.2, hit, 2, 0
249, 2, T_Sinc, T_Sinc_DGLG, 514.7, hit, 1, 0
250, 2, T_Sinc, T_Sinc_DGLG, 514.1, hit, 1, 0
251, 2, T_Sinc, T_Sinc_URRR, 469.6, hit, 2, 0
252, 2, T_Sinc, T_Sinc_URRR, 665.0, hit, 2, 0
253, 2, T_Scon, T_Scon_DRRR, 452.2, hit, 2, 0
254, 2, T_Sinc, T_Sinc_URRR, 451.6, hit, 2, 0
255, 2, T_Sinc, T_Sinc_DGLG, 599.0, hit, 1, 0
256, 2, T_Sinc, T_Sinc_DGLG, 418.5, hit, 1, 0
257, 2, T_Sinc, T_Sinc_DGLG, 401.9, hit, 1, 0
258, 2, T_Sinc, T_Sinc_URRR, 429.4, hit, 2, 0
259, 2, T_Sinc, T_Sinc_URRR, 656.8, hit, 2, 0
260, 2, T_Sinc, T_Sinc_DGLG, 520.3, hit, 1, 0
261, 2, T_Sinc, T_Sinc_URRR, 731.6, incorrect, 1, 1
262, 2, T_Sinc, T_Sinc_URRR, 503.0, hit, 2, 0
263, 2, T_Scon, T_Scon_UGLG, 482.5, hit, 1, 0
264, 2, T_Scon, T_Scon_UGLG, 433.9, hit, 1, 0
265, 2, T_Scon, T_Scon_DRRR, 505.4, hit, 2, 0
266, 2, T_Scon, T_Scon_UGLG, 524.8, hit, 1, 0
267, 2, T_Scon, T_Scon_UGLG, 1364.3, hit, 1, 2
268, 2, T_Sinc, T_Sinc_URRR, 679.7, hit, 2, 0
269, 2, T_Scon, T_Scon_UGLG, 795.2, hit, 1, 0
270, 2, T_Sinc, T_Sinc_DGLG, 518.5, hit, 1, 0
271, 2, T_Sinc, T_Sinc_URRR, 530.0, hit, 2, 0
272, 2, T_Sinc, T_Sinc_URRR, 369.4, hit, 2, 0
273, 2, T_Scon, T_Scon_DRRR, 328.9, hit, 2, 0
274, 2, T_Scon, T_Scon_DRRR, 332.3, hit, 2, 0
275, 2, T_Scon, T_Scon_UGLG, 463.8, hit, 1, 0
276, 2, T_Sinc, T_Sinc_DGLG, 743.2, hit, 1, 0
277, 2, T_Scon, T_Scon_UGLG, 662.7, hit, 1, 0
278, 2, T_Scon, T_Scon_UGLG, 454.1, hit, 1, 0
279, 2, T_Sinc, T_Sinc_DGLG, 629.5, hit, 1, 0
280, 2, T_Sinc, T_Sinc_URRR, 704.9, hit, 2, 0
281, 2, T_Sinc, T_Sinc_DGLG, 484.4, hit, 1, 0
282, 2, T_Sinc, T_Sinc_URRR, 487.8, hit, 2, 0
283, 2, T_Sinc, T_Sinc_URRR, 507.3, hit, 2, 0
284, 2, T_Scon, T_Scon_DRRR, 590.7, hit, 2, 0
285, 2, T_Sinc, T_Sinc_URRR, 442.2, hit, 2, 0
286, 2, T_Sinc, T_Sinc_DGLG, 549.6, hit, 1, 0
287, 2, T_Scon, T_Scon_UGLG, 637.1, hit, 1, 0
288, 2, T_Sinc, T_Sinc_DGLG, 640.5, hit, 1, 0
289, 3, T_Sinc, T_Sinc_DGLG, 422.1, hit, 1, 0
290, 3, T_Sinc, T_Sinc_DGLG, 393.5, hit, 1, 0
291, 3, T_Sinc, T_Sinc_DGLG, 357.0, hit, 1, 0
292, 3, T_Sinc, T_Sinc_URRR, 384.5, hit, 2, 0
293, 3, T_Sinc, T_Sinc_DGLG, 299.9, hit, 1, 0
294, 3, T_Sinc, T_Sinc_DGLG, 471.3, hit, 1, 0
295, 3, T_Scon, T_Scon_UGLG, 466.8, hit, 1, 0
296, 3, T_Sinc, T_Sinc_URRR, 386.2, hit, 2, 0
297, 3, T_Sinc, T_Sinc_URRR, 437.7, hit, 2, 0
298, 3, T_Scon, T_Scon_DRRR, 449.1, hit, 2, 0
299, 3, T_Sinc, T_Sinc_URRR, 528.6, hit, 2, 0
300, 3, T_Sinc, T_Sinc_URRR, 499.9, hit, 2, 0
301, 3, T_Sinc, T_Sinc_URRR, 447.4, hit, 2, 0
302, 3, T_Scon, T_Scon_UGLG, 462.8, hit, 1, 0
303, 3, T_Sinc, T_Sinc_URRR, 370.3, hit, 2, 0
304, 3, T_Sinc, T_Sinc_URRR, 617.7, hit, 2, 0
305, 3, T_Sinc, T_Sinc_DGLG, 453.1, hit, 1, 0
306, 3, T_Sinc, T_Sinc_URRR, 424.6, hit, 2, 0
307, 3, T_Sinc, T_Sinc_DGLG, 408.1, hit, 1, 0
308, 3, T_Scon, T_Scon_DRRR, 843.5, hit, 2, 0
309, 3, T_Sinc, T_Sinc_DGLG, 478.9, hit, 1, 0
310, 3, T_Sinc, T_Sinc_URRR, 450.3, hit, 2, 0
311, 3, T_Sinc, T_Sinc_URRR, 813.7, hit, 2, 0
312, 3, T_Sinc, T_Sinc_URRR, 509.2, hit, 2, 0
313, 3, T_Sinc, T_Sinc_DGLG, 376.6, hit, 1, 0
314, 3, T_Scon, T_Scon_UGLG, 416.1, hit, 1, 0
315, 3, T_Sinc, T_Sinc_URRR, 487.5, hit, 2, 0
316, 3, T_Scon, T_Scon_UGLG, 571.0, hit, 1, 0
317, 3, T_Sinc, T_Sinc_URRR, 658.4, hit, 2, 0
318, 3, T_Sinc, T_Sinc_URRR, 433.7, hit, 2, 0
319, 3, T_Sinc, T_Sinc_DGLG, 417.2, hit, 1, 0
320, 3, T_Sinc, T_Sinc_URRR, 484.7, hit, 2, 0
321, 3, T_Sinc, T_Sinc_DGLG, 480.1, hit, 1, 0
322, 3, T_Scon, T_Scon_UGLG, 719.6, hit, 1, 0
323, 3, T_Sinc, T_Sinc_DGLG, 627.0, hit, 1, 0
324, 3, T_Sinc, T_Sinc_URRR, 446.5, hit, 2, 0
325, 3, T_Sinc, T_Sinc_DGLG, 453.6, hit, 1, 0
326, 3, T_Sinc, T_Sinc_URRR, 425.0, hit, 2, 0
327, 3, T_Sinc, T_Sinc_DGLG, 336.5, hit, 1, 0
328, 3, T_Sinc, T_Sinc_URRR, 515.9, incorrect, 1, 1
329, 3, T_Sinc, T_Sinc_URRR, 479.4, hit, 2, 0
330, 3, T_Sinc, T_Sinc_DGLG, 342.8, hit, 1, 0
331, 3, T_Scon, T_Scon_DRRR, 570.3, hit, 2, 0
332, 3, T_Sinc, T_Sinc_DGLG, 621.6, hit, 1, 0
333, 3, T_Sinc, T_Sinc_DGLG, 529.1, hit, 1, 0
334, 3, T_Scon, T_Scon_DRRR, 688.5, hit, 2, 0
335, 3, T_Scon, T_Scon_DRRR, 528.0, hit, 2, 0
336, 3, T_Sinc, T_Sinc_DGLG, 515.4, hit, 1, 0
337, 3, T_Sinc, T_Sinc_DGLG, 782.9, hit, 1, 0
338, 3, T_Scon, T_Scon_UGLG, 538.3, hit, 1, 0
339, 3, T_Sinc, T_Sinc_DGLG, 517.7, hit, 1, 0
340, 3, T_Sinc, T_Sinc_DGLG, 573.2, hit, 1, 0
341, 3, T_Sinc, T_Sinc_URRR, 456.6, hit, 2, 0
342, 3, T_Sinc, T_Sinc_URRR, 564.1, hit, 2, 0
343, 3, T_Scon, T_Scon_UGLG, 611.5, hit, 1, 0
344, 3, T_Sinc, T_Sinc_DGLG, 715.0, hit, 1, 0
345, 3, T_Scon, T_Scon_DRRR, 1150.4, hit, 2, 2
346, 3, T_Sinc, T_Sinc_DGLG, 713.9, hit, 1, 0
347, 3, T_Sinc, T_Sinc_DGLG, 1373.3, hit, 1, 2
348, 3, T_Scon, T_Scon_DRRR, 824.7, hit, 2, 0
349, 3, T_Scon, T_Scon_UGLG, 532.2, hit, 1, 0
350, 3, T_Sinc, T_Sinc_URRR, 631.5, hit, 2, 0
351, 3, T_Sinc, T_Sinc_DGLG, 463.0, hit, 1, 0
352, 3, T_Scon, T_Scon_UGLG, 618.4, hit, 1, 0
353, 3, T_Sinc, T_Sinc_DGLG, 485.9, hit, 1, 0
354, 3, T_Sinc, T_Sinc_DGLG, 441.3, hit, 1, 0
355, 3, T_Sinc, T_Sinc_DGLG, 412.8, hit, 1, 0
356, 3, T_Sinc, T_Sinc_URRR, 548.1, hit, 2, 0
357, 3, T_Sinc, T_Sinc_DGLG, 331.6, hit, 1, 0
358, 3, T_Sinc, T_Sinc_DGLG, 623.0, hit, 1, 0
359, 3, T_Sinc, T_Sinc_URRR, 750.5, hit, 2, 0
360, 3, T_Sinc, T_Sinc_URRR, 669.9, hit, 2, 0
361, 3, T_Sinc, T_Sinc_URRR, 437.1, hit, 2, 0
362, 3, T_Scon, T_Scon_UGLG, 384.5, hit, 1, 0
363, 3, T_Scon, T_Scon_DRRR, 555.9, hit, 2, 0
364, 3, T_Sinc, T_Sinc_DGLG, 487.4, hit, 1, 0
365, 3, T_Sinc, T_Sinc_URRR, 474.8, hit, 2, 0
366, 3, T_Sinc, T_Sinc_URRR, 458.3, hit, 2, 0
367, 3, T_Sinc, T_Sinc_URRR, 369.7, hit, 2, 0
368, 3, T_Sinc, T_Sinc_URRR, 493.2, hit, 2, 0
369, 3, T_Scon, T_Scon_UGLG, 504.6, hit, 1, 0
370, 3, T_Sinc, T_Sinc_URRR, 436.1, hit, 2, 0
371, 3, T_Sinc, T_Sinc_URRR, 507.5, hit, 2, 0
372, 3, T_Sinc, T_Sinc_URRR, 394.9, hit, 2, 0
373, 3, T_Sinc, T_Sinc_URRR, 566.3, hit, 2, 0
374, 3, T_Scon, T_Scon_UGLG, 453.8, hit, 1, 0
375, 3, T_Scon, T_Scon_DRRR, 441.2, hit, 2, 0
376, 3, T_Sinc, T_Sinc_DGLG, 456.7, hit, 1, 0
377, 3, T_Scon, T_Scon_UGLG, 612.1, hit, 1, 0
378, 3, T_Sinc, T_Sinc_URRR, 519.5, hit, 2, 0
379, 3, T_Sinc, T_Sinc_URRR, 967.0, hit, 2, 2
380, 3, T_Sinc, T_Sinc_DGLG, 586.4, hit, 1, 0
381, 3, T_Scon, T_Scon_DRRR, 837.9, hit, 2, 0
382, 3, T_Sinc, T_Sinc_DGLG, 529.3, hit, 1, 0
383, 3, T_Sinc, T_Sinc_DGLG, 604.8, hit, 1, 0
384, 3, T_Sinc, T_Sinc_DGLG, 376.1, hit, 1, 0
385, 3, T_Scon, T_Scon_DRRR, 423.6, hit, 2, 0
386, 3, T_Sinc, T_Sinc_URRR, 555.0, hit, 2, 0
387, 3, T_Scon, T_Scon_UGLG, 662.5, hit, 1, 0
388, 3, T_Sinc, T_Sinc_DGLG, 689.9, hit, 1, 0
389, 3, T_Sinc, T_Sinc_DGLG, 413.4, hit, 1, 0
390, 3, T_Scon, T_Scon_UGLG, 420.8, hit, 1, 0
391, 3, T_Scon, T_Scon_UGLG, 464.3, hit, 1, 0
392, 3, T_Sinc, T_Sinc_URRR, 507.6, hit, 2, 0
393, 3, T_Sinc, T_Sinc_URRR, 431.1, hit, 2, 0
394, 3, T_Sinc, T_Sinc_URRR, 370.5, hit, 2, 0
395, 3, T_Sinc, T_Sinc_DGLG, 370.0, hit, 1, 0
396, 3, T_Sinc, T_Sinc_DGLG, 393.4, hit, 1, 0
397, 3, T_Scon, T_Scon_UGLG, 504.6, hit, 1, 0
398, 3, T_Sinc, T_Sinc_URRR, 384.0, hit, 2, 0
399, 3, T_Scon, T_Scon_DRRR, 471.4, hit, 2, 0
400, 3, T_Scon, T_Scon_DRRR, 482.9, hit, 2, 0
401, 3, T_Sinc, T_Sinc_URRR, 422.3, hit, 2, 0
402, 3, T_Sinc, T_Sinc_DGLG, 341.8, hit, 1, 0
403, 3, T_Sinc, T_Sinc_URRR, 725.1, hit, 2, 0
404, 3, T_Sinc, T_Sinc_DGLG, 756.6, hit, 1, 0
405, 3, T_Sinc, T_Sinc_URRR, 816.0, hit, 2, 0
406, 3, T_Sinc, T_Sinc_DGLG, 675.5, hit, 1, 0
407, 3, T_Scon, T_Scon_DRRR, 610.9, hit, 2, 0
408, 3, T_Sinc, T_Sinc_DGLG, 470.4, hit, 1, 0
409, 3, T_Scon, T_Scon_DRRR, 385.8, hit, 2, 0
410, 3, T_Sinc, T_Sinc_DGLG, 357.3, hit, 1, 0
411, 3, T_Sinc, T_Sinc_URRR, 440.7, hit, 2, 0
412, 3, T_Scon, T_Scon_DRRR, 548.2, hit, 2, 0
413, 3, T_Sinc, T_Sinc_DGLG, 407.6, hit, 1, 0
414, 3, T_Scon, T_Scon_UGLG, 606.9, hit, 1, 0
415, 3, T_Sinc, T_Sinc_URRR, 538.4, hit, 2, 0
416, 3, T_Sinc, T_Sinc_DGLG, 653.8, hit, 1, 0
417, 3, T_Sinc, T_Sinc_DGLG, 609.3, hit, 1, 0
418, 3, T_Sinc, T_Sinc_URRR, 652.7, hit, 2, 0
419, 3, T_Sinc, T_Sinc_DGLG, 504.2, hit, 1, 0
420, 3, T_Scon, T_Scon_DRRR, 915.6, hit, 2, 0
421, 3, T_Sinc, T_Sinc_URRR, 499.1, hit, 2, 0
422, 3, T_Sinc, T_Sinc_URRR, 478.5, hit, 2, 0
423, 3, T_Sinc, T_Sinc_DGLG, 465.9, hit, 1, 0
424, 3, T_Sinc, T_Sinc_DGLG, 513.3, hit, 1, 0
425, 3, T_Sinc, T_Sinc_URRR, 752.8, hit, 2, 0
426, 3, T_Sinc, T_Sinc_DGLG, 292.2, hit, 1, 0
427, 3, T_Sinc, T_Sinc_DGLG, 895.7, hit, 1, 2
428, 3, T_Scon, T_Scon_DRRR, 543.1, hit, 2, 0
429, 3, T_Sinc, T_Sinc_URRR, 710.6, hit, 2, 0
430, 3, T_Sinc, T_Sinc_URRR, 466.0, hit, 2, 0
431, 3, T_Sinc, T_Sinc_DGLG, 457.5, hit, 1, 0
432, 3, T_Sinc, T_Sinc_URRR, 452.9, hit, 2, 0
433, 4, T_Sinc, T_Sinc_URRR, 491.2, hit, 2, 0
434, 4, T_Scon, T_Scon_DRRR, 422.6, hit, 2, 0
435, 4, T_Scon, T_Scon_UGLG, 394.0, hit, 1, 0
436, 4, T_Scon, T_Scon_UGLG, 349.4, hit, 1, 0
437, 4, T_Sinc, T_Sinc_DGLG, 588.8, hit, 1, 0
438, 4, T_Scon, T_Scon_UGLG, 428.3, hit, 1, 0
439, 4, T_Scon, T_Scon_UGLG, 331.7, hit, 1, 0
440, 4, T_Scon, T_Scon_DRRR, 395.2, hit, 2, 0
441, 4, T_Scon, T_Scon_DRRR, 506.6, hit, 2, 0
442, 4, T_Scon, T_Scon_UGLG, 582.0, hit, 1, 0
443, 4, T_Scon, T_Scon_DRRR, 497.5, hit, 2, 0
444, 4, T_Scon, T_Scon_DRRR, 577.0, hit, 2, 0
445, 4, T_Scon, T_Scon_DRRR, 524.3, incorrect, 1, 1
446, 4, T_Scon, T_Scon_DRRR, 583.7, hit, 2, 0
447, 4, T_Scon, T_Scon_UGLG, 679.2, hit, 1, 0
448, 4, T_Scon, T_Scon_DRRR, 474.7, hit, 2, 0
449, 4, T_Scon, T_Scon_UGLG, 494.1, hit, 1, 0
450, 4, T_Scon, T_Scon_DRRR, 505.6, hit, 2, 0
451, 4, T_Scon, T_Scon_DRRR, 492.9, hit, 2, 0
452, 4, T_Sinc, T_Sinc_DGLG, 656.3, hit, 1, 0
453, 4, T_Scon, T_Scon_DRRR, 619.8, hit, 2, 0
454, 4, T_Sinc, T_Sinc_URRR, 575.2, hit, 2, 0
455, 4, T_Scon, T_Scon_DRRR, 406.7, hit, 2, 0
456, 4, T_Sinc, T_Sinc_DGLG, 498.1, hit, 1, 0
457, 4, T_Sinc, T_Sinc_URRR, 621.6, hit, 2, 0
458, 4, T_Scon, T_Scon_DRRR, 489.0, hit, 2, 0
459, 4, T_Scon, T_Scon_UGLG, 540.5, hit, 1, 0
460, 4, T_Sinc, T_Sinc_DGLG, 567.9, hit, 1, 0
461, 4, T_Scon, T_Scon_DRRR, 619.4, hit, 2, 0
462, 4, T_Scon, T_Scon_DRRR, 438.7, hit, 2, 0
463, 4, T_Sinc, T_Sinc_DGLG, 526.2, hit, 1, 0
464, 4, T_Scon, T_Scon_DRRR, 649.6, hit, 2, 0
465, 4, T_Scon, T_Scon_UGLG, 597.1, hit, 1, 0
466, 4, T_Scon, T_Scon_UGLG, 676.5, hit, 1, 0
467, 4, T_Sinc, T_Sinc_DGLG, 420.0, hit, 1, 0
468, 4, T_Scon, T_Scon_DRRR, 447.4, hit, 2, 0
469, 4, T_Scon, T_Scon_UGLG, 462.6, hit, 1, 0
470, 4, T_Scon, T_Scon_DRRR, 562.0, hit, 2, 0
471, 4, T_Scon, T_Scon_DRRR, 661.4, hit, 2, 0
472, 4, T_Scon, T_Scon_UGLG, 452.9, hit, 1, 0
473, 4, T_Scon, T_Scon_DRRR, 492.3, incorrect, 1, 1
474, 4, T_Scon, T_Scon_UGLG, 583.7, hit, 1, 0
475, 4, T_Scon, T_Scon_UGLG, 523.1, hit, 1, 0
476, 4, T_Scon, T_Scon_UGLG, 518.6, hit, 1, 0
477, 4, T_Scon, T_Scon_DRRR, 426.0, hit, 2, 0
478, 4, T_Scon, T_Scon_DRRR, 481.5, hit, 2, 0
479, 4, T_Scon, T_Scon_DRRR, 460.9, hit, 2, 0
480, 4, T_Scon, T_Scon_UGLG, 428.4, hit, 1, 0
481, 4, T_Scon, T_Scon_DRRR, 451.8, hit, 2, 0
482, 4, T_Sinc, T_Sinc_URRR, 527.2, hit, 2, 0
483, 4, T_Sinc, T_Sinc_URRR, 386.7, hit, 2, 0
484, 4, T_Scon, T_Scon_UGLG, 566.0, hit, 1, 0
485, 4, T_Scon, T_Scon_UGLG, 465.5, hit, 1, 0
486, 4, T_Scon, T_Scon_UGLG, 504.9, hit, 1, 0
487, 4, T_Scon, T_Scon_UGLG, 444.4, hit, 1, 0
488, 4, T_Scon, T_Scon_UGLG, 791.8, hit, 1, 0
489, 4, T_Scon, T_Scon_DRRR, 531.3, hit, 2, 0
490, 4, T_Sinc, T_Sinc_URRR, 530.7, hit, 2, 0
491, 4, T_Sinc, T_Sinc_URRR, 430.2, hit, 2, 0
492, 4, T_Scon, T_Scon_DRRR, 369.6, hit, 2, 0
493, 4, T_Scon, T_Scon_DRRR, 425.1, hit, 2, 0
494, 4, T_Sinc, T_Sinc_DGLG, 368.5, hit, 1, 0
495, 4, T_Sinc, T_Sinc_DGLG, 556.0, hit, 1, 0
496, 4, T_Sinc, T_Sinc_DGLG, 535.4, hit, 1, 0
497, 4, T_Scon, T_Scon_UGLG, 762.7, hit, 1, 0
498, 4, T_Scon, T_Scon_UGLG, 494.2, hit, 1, 0
499, 4, T_Scon, T_Scon_DRRR, 393.7, hit, 2, 0
500, 4, T_Scon, T_Scon_DRRR, 533.1, hit, 2, 0
501, 4, T_Scon, T_Scon_UGLG, 480.5, hit, 1, 0
502, 4, T_Scon, T_Scon_UGLG, 524.0, hit, 1, 0
503, 4, T_Scon, T_Scon_UGLG, 455.4, hit, 1, 0
504, 4, T_Scon, T_Scon_DRRR, 398.9, hit, 2, 0
505, 4, T_Scon, T_Scon_DRRR, 542.0, hit, 2, 0
506, 4, T_Scon, T_Scon_UGLG, 393.4, hit, 1, 0
507, 4, T_Scon, T_Scon_DRRR, 380.9, hit, 2, 0
508, 4, T_Scon, T_Scon_UGLG, 440.3, hit, 1, 0
509, 4, T_Sinc, T_Sinc_URRR, 571.8, hit, 2, 0
510, 4, T_Scon, T_Scon_DRRR, 391.2, hit, 2, 0
511, 4, T_Sinc, T_Sinc_DGLG, 466.7, hit, 1, 0
512, 4, T_Scon, T_Scon_DRRR, 354.1, hit, 2, 0
513, 4, T_Scon, T_Scon_UGLG, 665.6, hit, 1, 0
514, 4, T_Scon, T_Scon_DRRR, 428.9, hit, 2, 0
515, 4, T_Scon, T_Scon_UGLG, 600.4, hit, 1, 0
516, 4, T_Scon, T_Scon_UGLG, 455.8, hit, 1, 0
517, 4, T_Sinc, T_Sinc_DGLG, 519.3, hit, 1, 0
518, 4, T_Sinc, T_Sinc_DGLG, 554.7, hit, 1, 0
519, 4, T_Scon, T_Scon_UGLG, 422.2, hit, 1, 0
520, 4, T_Scon, T_Scon_UGLG, 365.6, hit, 1, 0
521, 4, T_Scon, T_Scon_DRRR, 589.0, hit, 2, 0
522, 4, T_Scon, T_Scon_DRRR, 784.5, hit, 2, 0
523, 4, T_Scon, T_Scon_DRRR, 623.9, hit, 2, 0
524, 4, T_Scon, T_Scon_DRRR, 771.4, hit, 2, 0
525, 4, T_Scon, T_Scon_DRRR, 542.8, hit, 2, 0
526, 4, T_Scon, T_Scon_DRRR, 466.2, hit, 2, 0
527, 4, T_Scon, T_Scon_UGLG, 557.6, hit, 1, 0
528, 4, T_Scon, T_Scon_DRRR, 525.1, hit, 2, 0
529, 4, T_Scon, T_Scon_UGLG, 460.6, hit, 1, 0
530, 4, T_Sinc, T_Sinc_URRR, 500.0, hit, 2, 0
531, 4, T_Scon, T_Scon_DRRR, 375.4, incorrect, 1, 1
532, 4, T_Scon, T_Scon_DRRR, 690.9, hit, 2, 0
533, 4, T_Scon, T_Scon_UGLG, 894.3, hit, 1, 0
534, 4, T_Scon, T_Scon_DRRR, 709.8, hit, 2, 0
535, 4, T_Scon, T_Scon_DRRR, 585.2, hit, 2, 0
536, 4, T_Scon, T_Scon_UGLG, 404.7, hit, 1, 0
537, 4, T_Scon, T_Scon_DRRR, 696.0, hit, 2, 0
538, 4, T_Sinc, T_Sinc_DGLG, 599.5, hit, 1, 0
539, 4, T_Sinc, T_Sinc_URRR, 582.9, hit, 2, 0
540, 4, T_Scon, T_Scon_UGLG, 810.3, hit, 1, 0
541, 4, T_Scon, T_Scon_UGLG, 465.6, hit, 1, 0
542, 4, T_Sinc, T_Sinc_DGLG, 421.0, hit, 1, 0
543, 4, T_Scon, T_Scon_DRRR, 440.4, hit, 2, 0
544, 4, T_Scon, T_Scon_UGLG, 523.8, hit, 1, 0
545, 4, T_Scon, T_Scon_UGLG, 399.3, hit, 1, 0
546, 4, T_Scon, T_Scon_DRRR, 422.7, hit, 2, 0
547, 4, T_Scon, T_Scon_UGLG, 506.1, hit, 1, 0
548, 4, T_Scon, T_Scon_UGLG, 501.6, hit, 1, 0
549, 4, T_Scon, T_Scon_UGLG, 417.0, hit, 1, 0
550, 4, T_Sinc, T_Sinc_URRR, 580.5, hit, 2, 0
551, 4, T_Sinc, T_Sinc_URRR, 524.0, hit, 2, 0
552, 4, T_Scon, T_Scon_UGLG, 463.4, hit, 1, 0
553, 4, T_Scon, T_Scon_DRRR, 586.8, hit, 2, 0
554, 4, T_Sinc, T_Sinc_URRR, 434.2, hit, 2, 0
555, 4, T_Sinc, T_Sinc_DGLG, 445.6, hit, 1, 0
556, 4, T_Scon, T_Scon_UGLG, 541.1, hit, 1, 0
557, 4, T_Scon, T_Scon_DRRR, 632.5, hit, 2, 0
558, 4, T_Scon, T_Scon_UGLG, 500.0, hit, 1, 0
559, 4, T_Scon, T_Scon_DRRR, 395.4, incorrect, 1, 1
560, 4, T_Scon, T_Scon_DRRR, 498.9, hit, 2, 0
561, 4, T_Scon, T_Scon_UGLG, 594.3, hit, 1, 0
562, 4, T_Scon, T_Scon_UGLG, 957.7, hit, 1, 2
563, 4, T_Sinc, T_Sinc_URRR, 457.1, hit, 2, 0
564, 4, T_Sinc, T_Sinc_URRR, 468.6, hit, 2, 0
565, 4, T_Sinc, T_Sinc_URRR, 428.0, hit, 2, 0
566, 4, T_Scon, T_Scon_DRRR, 663.5, hit, 2, 0
567, 4, T_Scon, T_Scon_UGLG, 446.9, hit, 1, 0
568, 4, T_Scon, T_Scon_UGLG, 598.4, hit, 1, 0
569, 4, T_Sinc, T_Sinc_DGLG, 529.8, hit, 1, 0
570, 4, T_Sinc, T_Sinc_DGLG, 653.2, hit, 1, 0
571, 4, T_Scon, T_Scon_UGLG, 636.6, hit, 1, 0
572, 4, T_Sinc, T_Sinc_DGLG, 496.0, hit, 1, 0
573, 4, T_Sinc, T_Sinc_URRR, 479.5, hit, 2, 0
574, 4, T_Scon, T_Scon_UGLG, 522.9, hit, 1, 0
575, 4, T_Scon, T_Scon_UGLG, 546.4, hit, 1, 0
576, 4, T_Sinc, T_Sinc_URRR, 521.8, hit, 2, 0
577, 5, T_Scon, T_Scon_DRRR, 614.4, hit, 2, 0
578, 5, T_Scon, T_Scon_UGLG, 341.9, hit, 1, 0
579, 5, T_Sinc, T_Sinc_URRR, 401.3, hit, 2, 0
580, 5, T_Scon, T_Scon_UGLG, 404.7, hit, 1, 0
581, 5, T_Scon, T_Scon_DRRR, 488.2, hit, 2, 0
582, 5, T_Scon, T_Scon_UGLG, 367.6, hit, 1, 0
583, 5, T_Scon, T_Scon_DRRR, 291.1, hit, 2, 0
584, 5, T_Scon, T_Scon_UGLG, 294.5, hit, 1, 0
585, 5, T_Scon, T_Scon_DRRR, 509.9, hit, 2, 0
586, 5, T_Scon, T_Scon_DRRR, 485.3, hit, 2, 0
587, 5, T_Scon, T_Scon_UGLG, 444.8, hit, 1, 0
588, 5, T_Scon, T_Scon_UGLG, 568.2, hit, 1, 0
589, 5, T_Scon, T_Scon_DRRR, 623.7, hit, 2, 0
590, 5, T_Sinc, T_Sinc_URRR, 607.1, hit, 2, 0
591, 5, T_Scon, T_Scon_UGLG, 502.6, hit, 1, 0
592, 5, T_Scon, T_Scon_DRRR, 462.0, hit, 2, 0
593, 5, T_Sinc, T_Sinc_URRR, 745.3, hit, 2, 0
594, 5, T_Scon, T_Scon_UGLG, 460.8, hit, 1, 0
595, 5, T_Scon, T_Scon_UGLG, 368.2, hit, 1, 0
596, 5, T_Scon, T_Scon_UGLG, 519.7, hit, 1, 0
597, 5, T_Scon, T_Scon_DRRR, 435.1, hit, 2, 0
598, 5, T_Sinc, T_Sinc_DGLG, 702.6, hit, 1, 0
599, 5, T_Sinc, T_Sinc_DGLG, 550.0, hit, 1, 0
600, 5, T_Scon, T_Scon_UGLG, 341.5, hit, 1, 0
601, 5, T_Scon, T_Scon_UGLG, 632.8, hit, 1, 0
602, 5, T_Scon, T_Scon_DRRR, 708.3, hit, 2, 0
603, 5, T_Scon, T_Scon_DRRR, 583.7, hit, 2, 0
604, 5, T_Scon, T_Scon_UGLG, 695.2, hit, 1, 0
605, 5, T_Scon, T_Scon_DRRR, 1562.6, hit, 2, 2
606, 5, T_Scon, T_Scon_UGLG, 718.1, hit, 1, 0
607, 5, T_Scon, T_Scon_DRRR, 497.5, hit, 2, 0
608, 5, T_Sinc, T_Sinc_URRR, 477.0, hit, 2, 0
609, 5, T_Scon, T_Scon_DRRR, 352.4, hit, 2, 0
610, 5, T_Scon, T_Scon_UGLG, 383.9, hit, 1, 0
611, 5, T_Sinc, T_Sinc_URRR, 491.3, hit, 2, 0
612, 5, T_Scon, T_Scon_DRRR, 646.8, hit, 2, 0
613, 5, T_Scon, T_Scon_UGLG, 493.9, hit, 1, 0
614, 5, T_Scon, T_Scon_DRRR, 345.3, hit, 2, 0
615, 5, T_Sinc, T_Sinc_DGLG, 556.7, hit, 1, 0
616, 5, T_Scon, T_Scon_UGLG, 640.2, hit, 1, 0
617, 5, T_Scon, T_Scon_UGLG, 507.6, hit, 1, 0
618, 5, T_Scon, T_Scon_UGLG, 395.1, hit, 1, 0
619, 5, T_Scon, T_Scon_DRRR, 406.5, hit, 2, 0
620, 5, T_Scon, T_Scon_DRRR, 482.0, hit, 2, 0
621, 5, T_Sinc, T_Sinc_URRR, 509.4, hit, 2, 0
622, 5, T_Scon, T_Scon_DRRR, 456.8, hit, 2, 0
623, 5, T_Sinc, T_Sinc_DGLG, 476.2, hit, 1, 0
624, 5, T_Scon, T_Scon_UGLG, 519.7, hit, 1, 0
625, 5, T_Scon, T_Scon_DRRR, 463.1, hit, 2, 0
626, 5, T_Sinc, T_Sinc_URRR, 566.6, incorrect, 1, 1
627, 5, T_Scon, T_Scon_UGLG, 418.0, hit, 1, 0
628, 5, T_Scon, T_Scon_DRRR, 505.5, hit, 2, 0
629, 5, T_Scon, T_Scon_DRRR, 548.8, hit, 2, 0
630, 5, T_Scon, T_Scon_UGLG, 516.3, hit, 1, 0
631, 5, T_Scon, T_Scon_DRRR, 735.7, hit, 2, 0
632, 5, T_Scon, T_Scon_UGLG, 719.2, hit, 1, 0
633, 5, T_Scon, T_Scon_UGLG, 474.6, hit, 1, 0
634, 5, T_Scon, T_Scon_UGLG, 426.0, hit, 1, 0
635, 5, T_Scon, T_Scon_UGLG, 401.5, hit, 1, 0
636, 5, T_Scon, T_Scon_DRRR, 365.0, hit, 2, 0
637, 5, T_Scon, T_Scon_DRRR, 464.4, hit, 2, 0
638, 5, T_Scon, T_Scon_DRRR, 503.8, hit, 2, 0
639, 5, T_Scon, T_Scon_DRRR, 519.3, hit, 2, 0
640, 5, T_Scon, T_Scon_UGLG, 450.7, hit, 1, 0
641, 5, T_Sinc, T_Sinc_URRR, 646.2, hit, 2, 0
642, 5, T_Scon, T_Scon_DRRR, 569.5, hit, 2, 0
643, 5, T_Scon, T_Scon_UGLG, 493.0, hit, 1, 0
644, 5, T_Scon, T_Scon_DRRR, 548.4, hit, 2, 0
645, 5, T_Scon, T_Scon_UGLG, 543.9, hit, 1, 0
646, 5, T_Scon, T_Scon_DRRR, 475.3, hit, 2, 0
647, 5, T_Scon, T_Scon_DRRR, 474.8, hit, 2, 0
648, 5, T_Scon, T_Scon_UGLG, 326.2, hit, 1, 0
649, 5, T_Scon, T_Scon_DRRR, 429.4, hit, 2, 0
650, 5, T_Scon, T_Scon_DRRR, 392.8, hit, 2, 0
651, 5, T_Sinc, T_Sinc_DGLG, 356.2, hit, 1, 0
652, 5, T_Scon, T_Scon_UGLG, 551.7, hit, 1, 0
653, 5, T_Scon, T_Scon_UGLG, 507.1, hit, 1, 0
654, 5, T_Scon, T_Scon_DRRR, 614.6, hit, 2, 0
655, 5, T_Scon, T_Scon_UGLG, 498.0, hit, 1, 0
656, 5, T_Scon, T_Scon_DRRR, 437.5, hit, 2, 0
657, 5, T_Scon, T_Scon_UGLG, 504.9, hit, 1, 0
658, 5, T_Scon, T_Scon_DRRR, 452.3, hit, 2, 0
659, 5, T_Sinc, T_Sinc_DGLG, 611.7, hit, 1, 0
660, 5, T_Scon, T_Scon_UGLG, 663.2, hit, 1, 0
661, 5, T_Scon, T_Scon_UGLG, 510.6, hit, 1, 0
662, 5, T_Sinc, T_Sinc_URRR, 442.1, hit, 2, 0
663, 5, T_Scon, T_Scon_DRRR, 449.5, hit, 2, 0
664, 5, T_Sinc, T_Sinc_URRR, 412.9, incorrect, 1, 1
665, 5, T_Scon, T_Scon_DRRR, 384.4, hit, 2, 0
666, 5, T_Scon, T_Scon_UGLG, 379.8, hit, 1, 0
667, 5, T_Scon, T_Scon_DRRR, 443.3, hit, 2, 0
668, 5, T_Scon, T_Scon_DRRR, 410.7, hit, 2, 0
669, 5, T_Sinc, T_Sinc_URRR, 658.1, hit, 2, 0
670, 5, T_Sinc, T_Sinc_URRR, 549.5, hit, 2, 0
671, 5, T_Scon, T_Scon_DRRR, 537.0, hit, 2, 0
672, 5, T_Sinc, T_Sinc_DGLG, 620.4, hit, 1, 0
673, 5, T_Sinc, T_Sinc_URRR, 475.9, hit, 2, 0
674, 5, T_Sinc, T_Sinc_DGLG, 463.3, hit, 1, 0
675, 5, T_Scon, T_Scon_UGLG, 730.8, hit, 1, 0
676, 5, T_Sinc, T_Sinc_URRR, 658.2, hit, 2, 0
677, 5, T_Scon, T_Scon_UGLG, 933.7, hit, 1, 0
678, 5, T_Scon, T_Scon_DRRR, 481.0, hit, 2, 0
679, 5, T_Scon, T_Scon_UGLG, 924.5, hit, 1, 0
680, 5, T_Scon, T_Scon_DRRR, 631.9, hit, 2, 0
681, 5, T_Sinc, T_Sinc_DGLG, 619.4, hit, 1, 0
682, 5, T_Scon, T_Scon_DRRR, 546.8, hit, 2, 0
683, 5, T_Sinc, T_Sinc_DGLG, 726.2, hit, 1, 0
684, 5, T_Scon, T_Scon_DRRR, 685.7, hit, 2, 0
685, 5, T_Scon, T_Scon_DRRR, 452.8, hit, 2, 0
686, 5, T_Scon, T_Scon_UGLG, 456.3, hit, 1, 0
687, 5, T_Scon, T_Scon_UGLG, 531.7, hit, 1, 0
688, 5, T_Scon, T_Scon_UGLG, 407.2, hit, 1, 0
689, 5, T_Scon, T_Scon_UGLG, 338.6, hit, 1, 0
690, 5, T_Sinc, T_Sinc_URRR, 522.1, hit, 2, 0
691, 5, T_Scon, T_Scon_DRRR, 461.5, hit, 2, 0
692, 5, T_Sinc, T_Sinc_URRR, 604.9, hit, 2, 0
693, 5, T_Scon, T_Scon_DRRR, 536.3, hit, 2, 0
694, 5, T_Sinc, T_Sinc_DGLG, 407.8, hit, 1, 0
695, 5, T_Scon, T_Scon_UGLG, 539.2, hit, 1, 0
696, 5, T_Scon, T_Scon_DRRR, 554.7, hit, 2, 0
697, 5, T_Scon, T_Scon_DRRR, 458.1, hit, 2, 0
698, 5, T_Sinc, T_Sinc_URRR, 453.5, hit, 2, 0
699, 5, T_Sinc, T_Sinc_DGLG, 449.0, hit, 1, 0
700, 5, T_Scon, T_Scon_DRRR, 428.3, hit, 2, 0
701, 5, T_Scon, T_Scon_UGLG, 407.8, hit, 1, 0
702, 5, T_Sinc, T_Sinc_DGLG, 579.2, hit, 1, 0
703, 5, T_Sinc, T_Sinc_DGLG, 502.7, hit, 1, 0
704, 5, T_Scon, T_Scon_DRRR, 678.1, hit, 2, 0
705, 5, T_Scon, T_Scon_UGLG, 601.6, hit, 1, 0
706, 5, T_Scon, T_Scon_DRRR, 417.0, hit, 2, 0
707, 5, T_Scon, T_Scon_UGLG, 412.5, hit, 1, 0
708, 5, T_Sinc, T_Sinc_DGLG, 427.9, hit, 1, 0
709, 5, T_Scon, T_Scon_UGLG, 735.4, incorrect, 2, 1
710, 5, T_Scon, T_Scon_DRRR, 550.7, hit, 2, 0
711, 5, T_Scon, T_Scon_UGLG, 306.2, hit, 1, 0
712, 5, T_Scon, T_Scon_UGLG, 413.6, hit, 1, 0
713, 5, T_Sinc, T_Sinc_DGLG, 465.1, hit, 1, 0
714, 5, T_Sinc, T_Sinc_DGLG, 532.5, hit, 1, 0
715, 5, T_Scon, T_Scon_UGLG, 496.0, hit, 1, 0
716, 5, T_Sinc, T_Sinc_DGLG, 439.4, hit, 1, 0
717, 5, T_Scon, T_Scon_UGLG, 946.8, hit, 1, 2
718, 5, T_Scon, T_Scon_UGLG, 474.3, hit, 1, 0
719, 5, T_Scon, T_Scon_DRRR, 417.7, hit, 2, 0
720, 5, T_Sinc, T_Sinc_URRR, 485.1, hit, 2, 0
721, 6, T_Sinc, T_Sinc_URRR, 446.3, hit, 2, 0
722, 6, T_Scon, T_Scon_DRRR, 353.8, hit, 2, 0
723, 6, T_Scon, T_Scon_DRRR, 313.2, hit, 2, 0
724, 6, T_Sinc, T_Sinc_URRR, 328.6, hit, 2, 0
725, 6, T_Scon, T_Scon_DRRR, 348.1, hit, 2, 0
726, 6, T_Scon, T_Scon_UGLG, 363.6, hit, 1, 0
727, 6, T_Scon, T_Scon_UGLG, 399.0, hit, 1, 0
728, 6, T_Scon, T_Scon_UGLG, 498.4, hit, 1, 0
729, 6, T_Scon, T_Scon_DRRR, 457.8, hit, 2, 0
730, 6, T_Scon, T_Scon_UGLG, 385.2, hit, 1, 0
731, 6, T_Scon, T_Scon_DRRR, 372.7, hit, 2, 0
732, 6, T_Scon, T_Scon_DRRR, 436.1, hit, 2, 0
733, 6, T_Sinc, T_Sinc_DGLG, 463.6, hit, 1, 0
734, 6, T_Scon, T_Scon_UGLG, 531.0, hit, 1, 0
735, 6, T_Scon, T_Scon_DRRR, 490.5, hit, 2, 0
736, 6, T_Scon, T_Scon_DRRR, 589.8, hit, 2, 0
737, 6, T_Sinc, T_Sinc_URRR, 421.3, hit, 2, 0
738, 6, T_Scon, T_Scon_UGLG, 544.7, hit, 1, 0
739, 6, T_Scon, T_Scon_DRRR, 464.2, hit, 2, 0
740, 6, T_Scon, T_Scon_DRRR, 339.6, hit, 2, 0
741, 6, T_Sinc, T_Sinc_URRR, 423.1, hit, 2, 0
742, 6, T_Scon, T_Scon_UGLG, 778.5, hit, 1, 0
743, 6, T_Scon, T_Scon_UGLG, 574.0, hit, 1, 0
744, 6, T_Sinc, T_Sinc_DGLG, 513.3, hit, 1, 0
745, 6, T_Sinc, T_Sinc_DGLG, 384.8, hit, 1, 0
746, 6, T_Scon, T_Scon_UGLG, 436.2, hit, 1, 0
747, 6, T_Scon, T_Scon_UGLG, 391.7, hit, 1, 0
748, 6, T_Scon, T_Scon_DRRR, 459.1, hit, 2, 0
749, 6, T_Scon, T_Scon_DRRR, 390.5, hit, 2, 0
750, 6, T_Scon, T_Scon_UGLG, 506.0, hit, 1, 0
751, 6, T_Sinc, T_Sinc_URRR, 549.4, hit, 2, 0
752, 6, T_Scon, T_Scon_DRRR, 456.9, hit, 2, 0
753, 6, T_Scon, T_Scon_UGLG, 548.3, hit, 1, 0
754, 6, T_Scon, T_Scon_DRRR, 363.7, hit, 2, 0
755, 6, T_Scon, T_Scon_UGLG, 639.1, hit, 1, 0
756, 6, T_Sinc, T_Sinc_URRR, 526.6, hit, 2, 0
757, 6, T_Scon, T_Scon_UGLG, 437.8, hit, 1, 0
758, 6, T_Sinc, T_Sinc_DGLG, 473.2, hit, 1, 0
759, 6, T_Scon, T_Scon_UGLG, 368.7, hit, 1, 0
760, 6, T_Sinc, T_Sinc_DGLG, 428.0, hit, 1, 0
761, 6, T_Scon, T_Scon_UGLG, 383.5, hit, 1, 0
762, 6, T_Sinc, T_Sinc_URRR, 374.9, hit, 2, 0
763, 6, T_Scon, T_Scon_UGLG, 590.4, hit, 1, 0
764, 6, T_Scon, T_Scon_DRRR, 421.8, hit, 2, 0
765, 6, T_Scon, T_Scon_DRRR, 457.3, hit, 2, 0
766, 6, T_Sinc, T_Sinc_DGLG, 364.7, hit, 1, 0
767, 6, T_Scon, T_Scon_UGLG, 520.2, hit, 1, 0
768, 6, T_Scon, T_Scon_DRRR, 479.6, hit, 2, 0
769, 6, T_Scon, T_Scon_DRRR, 399.1, hit, 2, 0
770, 6, T_Sinc, T_Sinc_URRR, 426.5, hit, 2, 0
771, 6, T_Scon, T_Scon_UGLG, 533.9, hit, 1, 0
772, 6, T_Scon, T_Scon_DRRR, 445.3, hit, 2, 0
773, 6, T_Scon, T_Scon_DRRR, 820.7, hit, 2, 0
774, 6, T_Sinc, T_Sinc_URRR, 596.2, hit, 2, 0
775, 6, T_Scon, T_Scon_UGLG, 615.6, hit, 1, 0
776, 6, T_Scon, T_Scon_DRRR, 627.1, hit, 2, 0
777, 6, T_Scon, T_Scon_DRRR, 526.5, hit, 2, 0
778, 6, T_Scon, T_Scon_UGLG, 554.0, hit, 1, 0
779, 6, T_Scon, T_Scon_DRRR, 765.4, hit, 2, 0
780, 6, T_Sinc, T_Sinc_URRR, 496.8, hit, 2, 0
781, 6, T_Sinc, T_Sinc_DGLG, 732.2, hit, 1, 0
782, 6, T_Sinc, T_Sinc_DGLG, 439.7, hit, 1, 0
783, 6, T_Sinc, T_Sinc_URRR, 1003.1, hit, 2, 2
784, 6, T_Sinc, T_Sinc_URRR, 470.6, hit, 2, 0
785, 6, T_Scon, T_Scon_UGLG, 546.0, hit, 1, 0
786, 6, T_Scon, T_Scon_UGLG, 1217.5, hit, 1, 2
787, 6, T_Scon, T_Scon_DRRR, 468.8, hit, 2, 0
788, 6, T_Scon, T_Scon_DRRR, 584.3, hit, 2, 0
789, 6, T_Scon, T_Scon_DRRR, 427.7, hit, 2, 0
790, 6, T_Scon, T_Scon_UGLG, 631.2, hit, 1, 0
791, 6, T_Scon, T_Scon_DRRR, 746.6, hit, 2, 0
792, 6, T_Scon, T_Scon_UGLG, 590.1, hit, 1, 0
793, 6, T_Sinc, T_Sinc_DGLG, 449.2, hit, 1, 0
794, 6, T_Scon, T_Scon_DRRR, 456.6, hit, 2, 0
795, 6, T_Scon, T_Scon_UGLG, 416.1, hit, 1, 0
796, 6, T_Scon, T_Scon_DRRR, 463.5, hit, 2, 0
797, 6, T_Scon, T_Scon_DRRR, 475.0, hit, 2, 0
798, 6, T_Sinc, T_Sinc_DGLG, 566.4, hit, 1, 0
799, 6, T_Scon, T_Scon_UGLG, 697.9, hit, 1, 0
800, 6, T_Scon, T_Scon_UGLG, 621.3, hit, 1, 0
801, 6, T_Sinc, T_Sinc_DGLG, 656.8, hit, 1, 0
802, 6, T_Sinc, T_Sinc_DGLG, 388.2, hit, 1, 0
803, 6, T_Sinc, T_Sinc_URRR, 583.7, hit, 2, 0
804, 6, T_Scon, T_Scon_DRRR, 435.1, hit, 2, 0
805, 6, T_Sinc, T_Sinc_URRR, 538.5, hit, 2, 0
806, 6, T_Sinc, T_Sinc_DGLG, 461.9, hit, 1, 0
807, 6, T_Scon, T_Scon_DRRR, 581.3, hit, 2, 0
808, 6, T_Scon, T_Scon_DRRR, 424.8, hit, 2, 0
809, 6, T_Scon, T_Scon_UGLG, 600.2, hit, 1, 0
810, 6, T_Scon, T_Scon_DRRR, 779.7, hit, 2, 0
811, 6, T_Scon, T_Scon_DRRR, 667.1, hit, 2, 0
812, 6, T_Scon, T_Scon_DRRR, 538.6, hit, 2, 0
813, 6, T_Scon, T_Scon_DRRR, 374.0, hit, 2, 0
814, 6, T_Sinc, T_Sinc_DGLG, 453.5, hit, 1, 0
815, 6, T_Scon, T_Scon_DRRR, 504.8, hit, 2, 0
816, 6, T_Scon, T_Scon_DRRR, 628.3, hit, 2, 0
817, 6, T_Scon, T_Scon_DRRR, 431.7, hit, 2, 0
818, 6, T_Scon, T_Scon_DRRR, 503.2, hit, 2, 0
819, 6, T_Scon, T_Scon_UGLG, 490.7, hit, 1, 0
820, 6, T_Scon, T_Scon_UGLG, 578.1, hit, 1, 0
821, 6, T_Scon, T_Scon_UGLG, 497.5, hit, 1, 0
822, 6, T_Sinc, T_Sinc_DGLG, 693.0, hit, 1, 0
823, 6, T_Sinc, T_Sinc_URRR, 580.4, hit, 2, 0
824, 6, T_Scon, T_Scon_UGLG, 483.8, hit, 1, 0
825, 6, T_Scon, T_Scon_DRRR, 491.2, hit, 2, 0
826, 6, T_Scon, T_Scon_UGLG, 862.6, hit, 1, 0
827, 6, T_Scon, T_Scon_DRRR, 502.1, hit, 2, 0
828, 6, T_Scon, T_Scon_DRRR, 709.5, hit, 2, 0
829, 6, T_Scon, T_Scon_UGLG, 364.7, hit, 1, 0
830, 6, T_Scon, T_Scon_UGLG, 512.1, hit, 1, 0
831, 6, T_Scon, T_Scon_DRRR, 395.6, hit, 2, 0
832, 6, T_Scon, T_Scon_UGLG, 419.0, hit, 1, 0
833, 6, T_Scon, T_Scon_UGLG, 410.5, hit, 1, 0
834, 6, T_Scon, T_Scon_DRRR, 549.9, hit, 2, 0
835, 6, T_Scon, T_Scon_UGLG, 513.3, hit, 1, 0
836, 6, T_Sinc, T_Sinc_DGLG, 500.8, hit, 1, 0
837, 6, T_Sinc, T_Sinc_DGLG, 480.2, hit, 1, 0
838, 6, T_Scon, T_Scon_UGLG, 395.6, hit, 1, 0
839, 6, T_Sinc, T_Sinc_URRR, 735.0, hit, 2, 0
840, 6, T_Scon, T_Scon_UGLG, 618.5, hit, 1, 0
841, 6, T_Scon, T_Scon_DRRR, 501.9, hit, 2, 0
842, 6, T_Scon, T_Scon_UGLG, 817.4, hit, 1, 0
843, 6, T_Sinc, T_Sinc_DGLG, 392.8, hit, 1, 0
844, 6, T_Scon, T_Scon_DRRR, 512.3, hit, 2, 0
845, 6, T_Scon, T_Scon_UGLG, 443.7, hit, 1, 0
846, 6, T_Sinc, T_Sinc_URRR, 455.1, hit, 2, 0
847, 6, T_Scon, T_Scon_UGLG, 362.5, hit, 1, 0
848, 6, T_Scon, T_Scon_UGLG, 422.0, hit, 1, 0
849, 6, T_Scon, T_Scon_DRRR, 397.4, hit, 2, 0
850, 6, T_Scon, T_Scon_DRRR, 544.9, hit, 2, 0
851, 6, T_Scon, T_Scon_DRRR, 516.3, hit, 2, 0
852, 6, T_Scon, T_Scon_UGLG, 735.7, hit, 1, 0
853, 6, T_Scon, T_Scon_DRRR, 427.3, hit, 2, 0
854, 6, T_Scon, T_Scon_UGLG, 534.6, hit, 1, 0
855, 6, T_Scon, T_Scon_UGLG, 570.1, hit, 1, 0
856, 6, T_Scon, T_Scon_UGLG, 645.5, hit, 1, 0
857, 6, T_Sinc, T_Sinc_URRR, 441.0, hit, 2, 0
858, 6, T_Scon, T_Scon_UGLG, 504.4, hit, 1, 0
859, 6, T_Scon, T_Scon_DRRR, 519.9, hit, 2, 0
860, 6, T_Scon, T_Scon_UGLG, 355.3, hit, 1, 0
861, 6, T_Scon, T_Scon_UGLG, 518.8, hit, 1, 0
862, 6, T_Scon, T_Scon_UGLG, 378.2, hit, 1, 0
863, 6, T_Scon, T_Scon_UGLG, 461.6, hit, 1, 0
864, 6, T_Scon, T_Scon_DRRR, 473.0, hit, 2, 0
865, 7, T_Sinc, T_Sinc_DGLG, 482.7, hit, 1, 0
866, 7, T_Sinc, T_Sinc_URRR, 438.1, hit, 2, 0
867, 7, T_Sinc, T_Sinc_URRR, 509.5, hit, 2, 0
868, 7, T_Sinc, T_Sinc_URRR, 481.0, hit, 2, 0
869, 7, T_Scon, T_Scon_UGLG, 348.5, hit, 1, 0
870, 7, T_Sinc, T_Sinc_URRR, 447.8, hit, 2, 0
871, 7, T_Sinc, T_Sinc_DGLG, 459.2, hit, 1, 0
872, 7, T_Scon, T_Scon_DRRR, 594.7, hit, 2, 0
873, 7, T_Scon, T_Scon_DRRR, 350.1, hit, 2, 0
874, 7, T_Sinc, T_Sinc_DGLG, 621.5, hit, 1, 0
875, 7, T_Sinc, T_Sinc_DGLG, 521.0, hit, 1, 0
876, 7, T_Sinc, T_Sinc_DGLG, 492.4, hit, 1, 0
877, 7, T_Sinc, T_Sinc_URRR, 359.9, hit, 2, 0
878, 7, T_Sinc, T_Sinc_DGLG, 851.3, hit, 1, 0
879, 7, T_Scon, T_Scon_UGLG, 558.8, hit, 1, 0
880, 7, T_Sinc, T_Sinc_URRR, 446.3, hit, 2, 0
881, 7, T_Scon, T_Scon_DRRR, 505.6, hit, 2, 0
882, 7, T_Sinc, T_Sinc_DGLG, 401.1, hit, 1, 0
883, 7, T_Sinc, T_Sinc_URRR, 460.5, hit, 2, 0
884, 7, T_Sinc, T_Sinc_URRR, 463.9, hit, 2, 0
885, 7, T_Sinc, T_Sinc_DGLG, 275.4, hit, 1, 0
886, 7, T_Sinc, T_Sinc_DGLG, 662.8, hit, 1, 0
887, 7, T_Scon, T_Scon_DRRR, 658.2, hit, 2, 0
888, 7, T_Sinc, T_Sinc_DGLG, 393.7, hit, 1, 0
889, 7, T_Sinc, T_Sinc_DGLG, 453.2, hit, 1, 0
890, 7, T_Sinc, T_Sinc_DGLG, 512.6, hit, 1, 0
891, 7, T_Sinc, T_Sinc_URRR, 404.0, hit, 2, 0
892, 7, T_Sinc, T_Sinc_URRR, 527.4, hit, 2, 0
893, 7, T_Sinc, T_Sinc_DGLG, 450.9, hit, 1, 0
894, 7, T_Sinc, T_Sinc_URRR, 510.3, hit, 2, 0
895, 7, T_Scon, T_Scon_UGLG, 577.7, hit, 1, 0
896, 7, T_Sinc, T_Sinc_URRR, 401.2, hit, 2, 0
897, 7, T_Scon, T_Scon_UGLG, 644.6, hit, 1, 0
898, 7, T_Sinc, T_Sinc_DGLG, 452.1, hit, 1, 0
899, 7, T_Sinc, T_Sinc_URRR, 483.5, hit, 2, 0
900, 7, T_Scon, T_Scon_UGLG, 695.0, hit, 1, 0
901, 7, T_Sinc, T_Sinc_URRR, 606.2, hit, 2, 0
902, 7, T_Sinc, T_Sinc_DGLG, 433.6, hit, 1, 0
903, 7, T_Sinc, T_Sinc_DGLG, 441.0, hit, 1, 0
904, 7, T_Sinc, T_Sinc_DGLG, 436.4, hit, 1, 0
905, 7, T_Sinc, T_Sinc_DGLG, 379.9, hit, 1, 0
906, 7, T_Sinc, T_Sinc_DGLG, 367.3, hit, 1, 0
907, 7, T_Sinc, T_Sinc_DGLG, 378.7, hit, 1, 0
908, 7, T_Scon, T_Scon_DRRR, 710.1, hit, 2, 0
909, 7, T_Sinc, T_Sinc_URRR, 425.6, hit, 2, 0
910, 7, T_Sinc, T_Sinc_URRR, 437.0, hit, 2, 0
911, 7, T_Sinc, T_Sinc_URRR, 384.5, hit, 2, 0
912, 7, T_Scon, T_Scon_UGLG, 451.9, hit, 1, 0
913, 7, T_Sinc, T_Sinc_URRR, 519.4, hit, 2, 0
914, 7, T_Sinc, T_Sinc_URRR, 446.8, hit, 2, 0
915, 7, T_Sinc, T_Sinc_DGLG, 410.3, hit, 1, 0
916, 7, T_Sinc, T_Sinc_URRR, 573.6, hit, 2, 0
917, 7, T_Sinc, T_Sinc_URRR, 525.1, hit, 2, 0
918, 7, T_Sinc, T_Sinc_DGLG, 548.5, hit, 1, 0
919, 7, T_Sinc, T_Sinc_URRR, 644.0, hit, 2, 0
920, 7, T_Sinc, T_Sinc_DGLG, 395.4, hit, 1, 0
921, 7, T_Scon, T_Scon_DRRR, 530.9, hit, 2, 0
922, 7, T_Sinc, T_Sinc_DGLG, 938.3, hit, 1, 2
923, 7, T_Scon, T_Scon_UGLG, 885.7, hit, 1, 0
924, 7, T_Sinc, T_Sinc_DGLG, 489.2, hit, 1, 0
925, 7, T_Scon, T_Scon_UGLG, 612.5, hit, 1, 0
926, 7, T_Sinc, T_Sinc_DGLG, 464.0, hit, 1, 0
927, 7, T_Sinc, T_Sinc_URRR, 579.4, hit, 2, 0
928, 7, T_Sinc, T_Sinc_DGLG, 466.9, hit, 1, 0
929, 7, T_Scon, T_Scon_DRRR, 514.3, hit, 2, 0
930, 7, T_Sinc, T_Sinc_DGLG, 473.8, hit, 1, 0
931, 7, T_Scon, T_Scon_DRRR, 509.2, hit, 2, 0
932, 7, T_Scon, T_Scon_DRRR, 648.7, hit, 2, 0
933, 7, T_Scon, T_Scon_DRRR, 476.1, hit, 2, 0
934, 7, T_Sinc, T_Sinc_URRR, 519.6, hit, 2, 0
935, 7, T_Scon, T_Scon_DRRR, 467.0, hit, 2, 0
936, 7, T_Sinc, T_Sinc_URRR, 470.4, hit, 2, 0
937, 7, T_Sinc, T_Sinc_DGLG, 425.6, hit, 1, 0
938, 7, T_Sinc, T_Sinc_URRR, 605.0, hit, 2, 0
939, 7, T_Scon, T_Scon_UGLG, 596.4, hit, 1, 0
940, 7, T_Sinc, T_Sinc_URRR, 391.8, hit, 2, 0
941, 7, T_Scon, T_Scon_UGLG, 487.3, hit, 1, 0
942, 7, T_Sinc, T_Sinc_DGLG, 514.7, hit, 1, 0
943, 7, T_Sinc, T_Sinc_URRR, 446.2, hit, 2, 0
944, 7, T_Scon, T_Scon_UGLG, 477.6, hit, 1, 0
945, 7, T_Sinc, T_Sinc_DGLG, 477.1, hit, 1, 0
946, 7, T_Sinc, T_Sinc_DGLG, 580.5, incorrect, 2, 1
947, 7, T_Sinc, T_Sinc_URRR, 604.0, hit, 2, 0
948, 7, T_Sinc, T_Sinc_DGLG, 671.4, hit, 1, 0
949, 7, T_Sinc, T_Sinc_DGLG, 506.8, hit, 1, 0
950, 7, T_Sinc, T_Sinc_URRR, 422.2, hit, 2, 0
951, 7, T_Scon, T_Scon_UGLG, 789.7, hit, 1, 0
952, 7, T_Scon, T_Scon_DRRR, 561.1, hit, 2, 0
953, 7, T_Sinc, T_Sinc_URRR, 524.6, hit, 2, 0
954, 7, T_Sinc, T_Sinc_URRR, 476.0, hit, 2, 0
955, 7, T_Sinc, T_Sinc_URRR, 503.5, hit, 2, 0
956, 7, T_Sinc, T_Sinc_DGLG, 610.9, hit, 1, 0
957, 7, T_Sinc, T_Sinc_DGLG, 770.3, hit, 1, 0
958, 7, T_Sinc, T_Sinc_URRR, 485.8, hit, 2, 0
959, 7, T_Sinc, T_Sinc_DGLG, 485.3, hit, 1, 0
960, 7, T_Sinc, T_Sinc_URRR, 524.6, hit, 2, 0
961, 7, T_Sinc, T_Sinc_DGLG, 384.0, hit, 1, 0
962, 7, T_Scon, T_Scon_UGLG, 531.5, hit, 1, 0
963, 7, T_Scon, T_Scon_DRRR, 742.9, incorrect, 1, 1
964, 7, T_Sinc, T_Sinc_DGLG, 602.4, hit, 1, 0
965, 7, T_Scon, T_Scon_DRRR, 345.8, hit, 2, 0
966, 7, T_Sinc, T_Sinc_DGLG, 349.3, hit, 1, 0
967, 7, T_Sinc, T_Sinc_URRR, 604.7, hit, 2, 0
968, 7, T_Sinc, T_Sinc_DGLG, 452.2, hit, 1, 0
969, 7, T_Scon, T_Scon_DRRR, 759.6, hit, 2, 0
970, 7, T_Sinc, T_Sinc_DGLG, 647.1, hit, 1, 0
971, 7, T_Scon, T_Scon_UGLG, 522.5, hit, 1, 0
972, 7, T_Sinc, T_Sinc_URRR, 417.8, hit, 2, 0
973, 7, T_Scon, T_Scon_UGLG, 485.1, hit, 1, 0
974, 7, T_Sinc, T_Sinc_URRR, 400.5, hit, 2, 0
975, 7, T_Sinc, T_Sinc_DGLG, 627.9, hit, 1, 0
976, 7, T_Sinc, T_Sinc_URRR, 415.3, hit, 2, 0
977, 7, T_Scon, T_Scon_UGLG, 586.8, hit, 1, 0
978, 7, T_Sinc, T_Sinc_URRR, 590.2, hit, 2, 0
979, 7, T_Sinc, T_Sinc_URRR, 477.7, hit, 2, 0
980, 7, T_Sinc, T_Sinc_URRR, 497.1, hit, 2, 0
981, 7, T_Sinc, T_Sinc_DGLG, 448.6, hit, 1, 0
982, 7, T_Sinc, T_Sinc_DGLG, 560.0, hit, 1, 0
983, 7, T_Sinc, T_Sinc_DGLG, 539.5, hit, 1, 0
984, 7, T_Scon, T_Scon_DRRR, 430.9, hit, 2, 0
985, 7, T_Sinc, T_Sinc_DGLG, 482.3, hit, 1, 0
986, 7, T_Sinc, T_Sinc_DGLG, 461.7, hit, 1, 0
987, 7, T_Sinc, T_Sinc_URRR, 469.1, hit, 2, 0
988, 7, T_Sinc, T_Sinc_DGLG, 528.6, hit, 1, 0
989, 7, T_Sinc, T_Sinc_URRR, 412.0, hit, 2, 0
990, 7, T_Scon, T_Scon_UGLG, 583.5, hit, 1, 0
991, 7, T_Sinc, T_Sinc_URRR, 422.9, hit, 2, 0
992, 7, T_Sinc, T_Sinc_URRR, 626.4, hit, 2, 0
993, 7, T_Sinc, T_Sinc_DGLG, 965.8, hit, 1, 2
994, 7, T_Sinc, T_Sinc_DGLG, 557.3, hit, 1, 0
995, 7, T_Sinc, T_Sinc_URRR, 632.7, hit, 2, 0
996, 7, T_Scon, T_Scon_DRRR, 480.2, incorrect, 1, 1
997, 7, T_Sinc, T_Sinc_URRR, 483.5, hit, 2, 0
998, 7, T_Sinc, T_Sinc_URRR, 415.0, hit, 2, 0
999, 7, T_Scon, T_Scon_DRRR, 354.4, hit, 2, 0
1000, 7, T_Sinc, T_Sinc_URRR, 405.9, hit, 2, 0
1001, 7, T_Sinc, T_Sinc_URRR, 565.3, hit, 2, 0
1002, 7, T_Sinc, T_Sinc_DGLG, 560.7, hit, 1, 0
1003, 7, T_Sinc, T_Sinc_URRR, 636.2, hit, 2, 0
1004, 7, T_Sinc, T_Sinc_DGLG, 359.6, hit, 1, 0
1005, 7, T_Sinc, T_Sinc_URRR, 391.1, hit, 2, 0
1006, 7, T_Sinc, T_Sinc_DGLG, 338.5, hit, 1, 0
1007, 7, T_Scon, T_Scon_UGLG, 438.0, incorrect, 2, 1
1008, 7, T_Sinc, T_Sinc_URRR, 561.3, hit, 2, 0
1009, 8, T_Scon, T_Scon_DRRR, 521.5, hit, 2, 0
1010, 8, T_Sinc, T_Sinc_URRR, 332.9, hit, 2, 0
1011, 8, T_Sinc, T_Sinc_DGLG, 412.3, hit, 1, 0
1012, 8, T_Sinc, T_Sinc_DGLG, 347.6, hit, 1, 0
1013, 8, T_Sinc, T_Sinc_DGLG, 407.1, hit, 1, 0
1014, 8, T_Sinc, T_Sinc_URRR, 486.5, hit, 2, 0
1015, 8, T_Scon, T_Scon_UGLG, 494.0, hit, 1, 0
1016, 8, T_Sinc, T_Sinc_DGLG, 417.4, hit, 1, 0
1017, 8, T_Sinc, T_Sinc_DGLG, 400.9, hit, 1, 0
1018, 8, T_Sinc, T_Sinc_URRR, 500.3, hit, 2, 0
1019, 8, T_Sinc, T_Sinc_URRR, 539.8, hit, 2, 0
1020, 8, T_Scon, T_Scon_DRRR, 763.2, hit, 2, 0
1021, 8, T_Sinc, T_Sinc_URRR, 526.6, hit, 2, 0
1022, 8, T_Sinc, T_Sinc_DGLG, 402.0, hit, 1, 0
1023, 8, T_Sinc, T_Sinc_DGLG, 485.5, hit, 1, 0
1024, 8, T_Sinc, T_Sinc_URRR, 464.9, hit, 2, 0
1025, 8, T_Sinc, T_Sinc_URRR, 388.4, hit, 2, 0
1026, 8, T_Scon, T_Scon_UGLG, 495.8, hit, 1, 0
1027, 8, T_Sinc, T_Sinc_DGLG, 587.3, hit, 1, 0
1028, 8, T_Sinc, T_Sinc_DGLG, 370.7, hit, 1, 0
1029, 8, T_Scon, T_Scon_DRRR, 418.1, hit, 2, 0
1030, 8, T_Sinc, T_Sinc_DGLG, 509.6, hit, 1, 0
1031, 8, T_Sinc, T_Sinc_DGLG, 357.0, hit, 1, 0
1032, 8, T_Sinc, T_Sinc_DGLG, 320.4, hit, 1, 0
1033, 8, T_Sinc, T_Sinc_URRR, 543.8, hit, 2, 0
1034, 8, T_Sinc, T_Sinc_URRR, 327.3, hit, 2, 0
1035, 8, T_Scon, T_Scon_DRRR, 494.7, hit, 2, 0
1036, 8, T_Sinc, T_Sinc_URRR, 418.2, hit, 2, 0
1037, 8, T_Scon, T_Scon_DRRR, 333.6, hit, 2, 0
1038, 8, T_Scon, T_Scon_UGLG, 353.1, hit, 1, 0
1039, 8, T_Sinc, T_Sinc_DGLG, 476.5, hit, 1, 0
1040, 8, T_Scon, T_Scon_DRRR, 392.0, hit, 2, 0
1041, 8, T_Sinc, T_Sinc_URRR, 531.3, hit, 2, 0
1042, 8, T_Sinc, T_Sinc_DGLG, 330.8, hit, 1, 0
1043, 8, T_Sinc, T_Sinc_URRR, 534.2, hit, 2, 0
1044, 8, T_Sinc, T_Sinc_URRR, 425.7, hit, 2, 0
1045, 8, T_Sinc, T_Sinc_URRR, 504.9, hit, 2, 0
1046, 8, T_Sinc, T_Sinc_URRR, 400.2, hit, 2, 0
1047, 8, T_Sinc, T_Sinc_URRR, 331.7, hit, 2, 0
1048, 8, T_Sinc, T_Sinc_URRR, 391.1, hit, 2, 0
1049, 8, T_Sinc, T_Sinc_DGLG, 422.6, hit, 1, 0
1050, 8, T_Sinc, T_Sinc_DGLG, 370.0, hit, 1, 0
1051, 8, T_Sinc, T_Sinc_URRR, 525.5, hit, 2, 0
1052, 8, T_Sinc, T_Sinc_DGLG, 368.9, hit, 1, 0
1053, 8, T_Sinc, T_Sinc_URRR, 360.4, hit, 2, 0
1054, 8, T_Sinc, T_Sinc_DGLG, 363.8, hit, 1, 0
1055, 8, T_Scon, T_Scon_UGLG, 315.3, incorrect, 2, 1
1056, 8, T_Sinc, T_Sinc_URRR, 398.7, incorrect, 1, 1
1057, 8, T_Sinc, T_Sinc_URRR, 462.1, hit, 2, 0
1058, 8, T_Sinc, T_Sinc_DGLG, 425.5, hit, 1, 0
1059, 8, T_Sinc, T_Sinc_DGLG, 464.9, hit, 1, 0
1060, 8, T_Sinc, T_Sinc_DGLG, 372.4, hit, 1, 0
1061, 8, T_Sinc, T_Sinc_URRR, 503.8, hit, 2, 0
1062, 8, T_Scon, T_Scon_DRRR, 439.3, hit, 2, 0
1063, 8, T_Sinc, T_Sinc_DGLG, 442.7, hit, 1, 0
1064, 8, T_Scon, T_Scon_UGLG, 534.2, hit, 1, 0
1065, 8, T_Sinc, T_Sinc_URRR, 681.6, hit, 2, 0
1066, 8, T_Scon, T_Scon_UGLG, 837.1, hit, 1, 0
1067, 8, T_Scon, T_Scon_DRRR, 420.5, hit, 2, 0
1068, 8, T_Scon, T_Scon_UGLG, 735.9, hit, 1, 0
1069, 8, T_Sinc, T_Sinc_URRR, 483.4, hit, 2, 0
1070, 8, T_Scon, T_Scon_DRRR, 498.8, hit, 2, 0
1071, 8, T_Sinc, T_Sinc_URRR, 462.2, hit, 2, 0
1072, 8, T_Scon, T_Scon_DRRR, 417.7, hit, 2, 0
1073, 8, T_Scon, T_Scon_UGLG, 729.1, hit, 1, 0
1074, 8, T_Scon, T_Scon_DRRR, 504.6, hit, 2, 0
1075, 8, T_Sinc, T_Sinc_DGLG, 675.9, hit, 1, 0
1076, 8, T_Scon, T_Scon_UGLG, 419.4, hit, 1, 0
1077, 8, T_Sinc, T_Sinc_URRR, 526.8, hit, 2, 0
1078, 8, T_Sinc, T_Sinc_URRR, 582.2, hit, 2, 0
1079, 8, T_Sinc, T_Sinc_URRR, 505.7, hit, 2, 0
1080, 8, T_Scon, T_Scon_DRRR, 661.1, hit, 2, 0
1081, 8, T_Scon, T_Scon_DRRR, 748.3, incorrect, 1, 1
1082, 8, T_Sinc, T_Sinc_DGLG, 655.7, hit, 1, 0
1083, 8, T_Sinc, T_Sinc_DGLG, 455.2, hit, 1, 0
1084, 8, T_Sinc, T_Sinc_URRR, 414.6, hit, 2, 0
1085, 8, T_Sinc, T_Sinc_URRR, 374.1, hit, 2, 0
1086, 8, T_Sinc, T_Sinc_DGLG, 449.5, hit, 1, 0
1087, 8, T_Scon, T_Scon_UGLG, 557.0, hit, 1, 0
1088, 8, T_Scon, T_Scon_UGLG, 560.4, hit, 1, 0
1089, 8, T_Sinc, T_Sinc_URRR, 483.8, hit, 2, 0
1090, 8, T_Sinc, T_Sinc_URRR, 655.2, hit, 2, 0
1091, 8, T_Sinc, T_Sinc_URRR, 410.6, hit, 2, 0
1092, 8, T_Scon, T_Scon_DRRR, 562.1, hit, 2, 0
1093, 8, T_Sinc, T_Sinc_URRR, 405.5, hit, 2, 0
1094, 8, T_Sinc, T_Sinc_DGLG, 525.0, hit, 1, 0
1095, 8, T_Sinc, T_Sinc_DGLG, 624.4, hit, 1, 0
1096, 8, T_Sinc, T_Sinc_URRR, 475.9, hit, 2, 0
1097, 8, T_Sinc, T_Sinc_URRR, 975.3, hit, 2, 2
1098, 8, T_Sinc, T_Sinc_DGLG, 478.8, hit, 1, 0
1099, 8, T_Sinc, T_Sinc_URRR, 534.2, hit, 2, 0
1100, 8, T_Scon, T_Scon_DRRR, 545.6, hit, 2, 0
1101, 8, T_Sinc, T_Sinc_DGLG, 557.0, hit, 1, 0
1102, 8, T_Sinc, T_Sinc_URRR, 680.5, hit, 2, 0
1103, 8, T_Sinc, T_Sinc_DGLG, 623.9, hit, 1, 0
1104, 8, T_Sinc, T_Sinc_DGLG, 531.4, hit, 1, 0
1105, 8, T_Scon, T_Scon_UGLG, 454.8, hit, 1, 0
1106, 8, T_Sinc, T_Sinc_URRR, 490.3, hit, 2, 0
1107, 8, T_Sinc, T_Sinc_DGLG, 481.7, hit, 1, 0
1108, 8, T_Sinc, T_Sinc_DGLG, 425.1, hit, 1, 0
1109, 8, T_Sinc, T_Sinc_DGLG, 536.5, hit, 1, 0
1110, 8, T_Sinc, T_Sinc_DGLG, 452.0, hit, 1, 0
1111, 8, T_Sinc, T_Sinc_URRR, 463.4, hit, 2, 0
1112, 8, T_Sinc, T_Sinc_DGLG, 554.8, hit, 1, 0
1113, 8, T_Sinc, T_Sinc_DGLG, 390.3, hit, 1, 0
1114, 8, T_Scon, T_Scon_DRRR, 729.7, hit, 2, 0
1115, 8, T_Scon, T_Scon_UGLG, 509.2, hit, 1, 0
1116, 8, T_Sinc, T_Sinc_URRR, 624.6, hit, 2, 0
1117, 8, T_Sinc, T_Sinc_DGLG, 463.8, hit, 1, 0
1118, 8, T_Sinc, T_Sinc_URRR, 479.2, hit, 2, 0
1119, 8, T_Sinc, T_Sinc_URRR, 410.7, hit, 2, 0
1120, 8, T_Sinc, T_Sinc_DGLG, 446.1, hit, 1, 0
1121, 8, T_Sinc, T_Sinc_DGLG, 505.5, hit, 1, 0
1122, 8, T_Sinc, T_Sinc_DGLG, 380.9, hit, 1, 0
1123, 8, T_Sinc, T_Sinc_DGLG, 368.3, hit, 1, 0
1124, 8, T_Scon, T_Scon_UGLG, 467.8, hit, 1, 0
1125, 8, T_Sinc, T_Sinc_DGLG, 399.2, hit, 1, 0
1126, 8, T_Sinc, T_Sinc_DGLG, 410.7, hit, 1, 0
1127, 8, T_Scon, T_Scon_UGLG, 418.1, hit, 1, 0
1128, 8, T_Sinc, T_Sinc_URRR, 457.6, hit, 2, 0
1129, 8, T_Sinc, T_Sinc_DGLG, 573.0, hit, 1, 0
1130, 8, T_Sinc, T_Sinc_DGLG, 876.5, hit, 1, 2
1131, 8, T_Sinc, T_Sinc_URRR, 467.9, hit, 2, 0
1132, 8, T_Sinc, T_Sinc_DGLG, 447.4, hit, 1, 0
1133, 8, T_Sinc, T_Sinc_DGLG, 438.8, hit, 1, 0
1134, 8, T_Sinc, T_Sinc_URRR, 418.2, hit, 2, 0
1135, 8, T_Sinc, T_Sinc_DGLG, 409.6, hit, 1, 0
1136, 8, T_Scon, T_Scon_UGLG, 693.1, hit, 1, 0
1137, 8, T_Sinc, T_Sinc_URRR, 592.5, hit, 2, 0
1138, 8, T_Sinc, T_Sinc_DGLG, 540.0, hit, 1, 0
1139, 8, T_Sinc, T_Sinc_DGLG, 719.4, hit, 1, 0
1140, 8, T_Sinc, T_Sinc_URRR, 522.8, hit, 2, 0
1141, 8, T_Scon, T_Scon_UGLG, 578.3, hit, 1, 0
1142, 8, T_Sinc, T_Sinc_URRR, 773.8, hit, 2, 0
1143, 8, T_Sinc, T_Sinc_DGLG, 601.2, hit, 1, 0
1144, 8, T_Scon, T_Scon_DRRR, 452.6, hit, 2, 0
1145, 8, T_Scon, T_Scon_DRRR, 584.0, hit, 2, 0
1146, 8, T_Sinc, T_Sinc_URRR, 443.4, hit, 2, 0
1147, 8, T_Sinc, T_Sinc_DGLG, 366.9, hit, 1, 0
1148, 8, T_Sinc, T_Sinc_URRR, 486.3, hit, 2, 0
1149, 8, T_Sinc, T_Sinc_URRR, 601.8, hit, 2, 0
1150, 8, T_Scon, T_Scon_UGLG, 473.2, hit, 1, 0
1151, 8, T_Sinc, T_Sinc_URRR, 668.7, hit, 2, 0
1152, 8, T_Sinc, T_Sinc_URRR, 536.1, hit, 2, 0
1153, 9, T_Sinc, T_Sinc_URRR, 540.2, incorrect, 1, 1
1154, 9, T_Sinc, T_Sinc_URRR, 491.6, hit, 2, 0
1155, 9, T_Sinc, T_Sinc_DGLG, 455.1, hit, 1, 0
1156, 9, T_Sinc, T_Sinc_DGLG, 474.5, hit, 1, 0
1157, 9, T_Sinc, T_Sinc_URRR, 622.0, hit, 2, 0
1158, 9, T_Scon, T_Scon_DRRR, 497.3, hit, 2, 0
1159, 9, T_Sinc, T_Sinc_DGLG, 528.8, hit, 1, 0
1160, 9, T_Sinc, T_Sinc_DGLG, 404.2, hit, 1, 0
1161, 9, T_Scon, T_Scon_UGLG, 407.7, hit, 1, 0
1162, 9, T_Scon, T_Scon_DRRR, 535.1, hit, 2, 0
1163, 9, T_Sinc, T_Sinc_URRR, 346.5, hit, 2, 0
1164, 9, T_Sinc, T_Sinc_URRR, 330.0, hit, 2, 0
1165, 9, T_Sinc, T_Sinc_DGLG, 381.4, hit, 1, 0
1166, 9, T_Sinc, T_Sinc_DGLG, 360.9, hit, 1, 0
1167, 9, T_Sinc, T_Sinc_URRR, 472.3, hit, 2, 0
1168, 9, T_Sinc, T_Sinc_DGLG, 375.8, hit, 1, 0
1169, 9, T_Scon, T_Scon_UGLG, 387.2, incorrect, 2, 1
1170, 9, T_Sinc, T_Sinc_DGLG, 542.6, hit, 1, 0
1171, 9, T_Scon, T_Scon_DRRR, 374.0, hit, 2, 0
1172, 9, T_Sinc, T_Sinc_URRR, 469.5, hit, 2, 0
1173, 9, T_Sinc, T_Sinc_URRR, 472.9, hit, 2, 0
1174, 9, T_Sinc, T_Sinc_DGLG, 508.3, hit, 1, 0
1175, 9, T_Sinc, T_Sinc_URRR, 451.8, hit, 2, 0
1176, 9, T_Sinc, T_Sinc_DGLG, 515.2, hit, 1, 0
1177, 9, T_Sinc, T_Sinc_URRR, 486.7, hit, 2, 0
1178, 9, T_Sinc, T_Sinc_DGLG, 522.1, hit, 1, 0
1179, 9, T_Sinc, T_Sinc_URRR, 409.5, hit, 2, 0
1180, 9, T_Scon, T_Scon_UGLG, 681.0, hit, 1, 0
1181, 9, T_Sinc, T_Sinc_URRR, 412.4, hit, 2, 0
1182, 9, T_Scon, T_Scon_UGLG, 775.8, hit, 1, 0
1183, 9, T_Sinc, T_Sinc_DGLG, 523.3, hit, 1, 0
1184, 9, T_Sinc, T_Sinc_DGLG, 474.7, hit, 1, 0
1185, 9, T_Sinc, T_Sinc_URRR, 358.2, hit, 2, 0
1186, 9, T_Sinc, T_Sinc_URRR, 465.7, hit, 2, 0
1187, 9, T_Sinc, T_Sinc_URRR, 333.1, hit, 2, 0
1188, 9, T_Sinc, T_Sinc_DGLG, 364.4, hit, 1, 0
1189, 9, T_Sinc, T_Sinc_DGLG, 491.7, hit, 1, 0
1190, 9, T_Sinc, T_Sinc_URRR, 399.1, hit, 2, 0
1191, 9, T_Sinc, T_Sinc_URRR, 362.6, hit, 2, 0
1192, 9, T_Sinc, T_Sinc_DGLG, 374.0, hit, 1, 0
1193, 9, T_Scon, T_Scon_DRRR, 481.4, hit, 2, 0
1194, 9, T_Sinc, T_Sinc_DGLG, 424.8, hit, 1, 0
1195, 9, T_Sinc, T_Sinc_URRR, 576.2, hit, 2, 0
1196, 9, T_Sinc, T_Sinc_URRR, 527.7, hit, 2, 0
1197, 9, T_Sinc, T_Sinc_DGLG, 367.1, hit, 1, 0
1198, 9, T_Scon, T_Scon_DRRR, 350.6, hit, 2, 0
1199, 9, T_Sinc, T_Sinc_URRR, 450.0, hit, 2, 0
1200, 9, T_Scon, T_Scon_UGLG, 509.5, hit, 1, 0
1201, 9, T_Sinc, T_Sinc_DGLG, 636.9, incorrect, 2, 1
1202, 9, T_Sinc, T_Sinc_DGLG, 432.3, hit, 1, 0
1203, 9, T_Scon, T_Scon_UGLG, 363.7, hit, 1, 0
1204, 9, T_Sinc, T_Sinc_DGLG, 335.2, hit, 1, 0
1205, 9, T_Sinc, T_Sinc_DGLG, 414.6, hit, 1, 0
1206, 9, T_Sinc, T_Sinc_DGLG, 346.1, hit, 1, 0
1207, 9, T_Scon, T_Scon_DRRR, 421.5, hit, 2, 0
1208, 9, T_Sinc, T_Sinc_URRR, 1113.0, hit, 2, 2
1209, 9, T_Sinc, T_Sinc_URRR, 592.4, hit, 2, 0
1210, 9, T_Sinc, T_Sinc_DGLG, 367.8, hit, 1, 0
1211, 9, T_Scon, T_Scon_DRRR, 571.2, hit, 2, 0
1212, 9, T_Sinc, T_Sinc_DGLG, 438.7, hit, 1, 0
1213, 9, T_Scon, T_Scon_DRRR, 490.1, hit, 2, 0
1214, 9, T_Sinc, T_Sinc_URRR, 653.6, hit, 2, 0
1215, 9, T_Sinc, T_Sinc_DGLG, 353.0, hit, 1, 0
1216, 9, T_Scon, T_Scon_UGLG, 612.5, hit, 1, 0
1217, 9, T_Sinc, T_Sinc_URRR, 399.9, hit, 2, 0
1218, 9, T_Scon, T_Scon_UGLG, 655.2, hit, 1, 0
1219, 9, T_Sinc, T_Sinc_DGLG, 386.7, hit, 1, 0
1220, 9, T_Scon, T_Scon_UGLG, 398.2, hit, 1, 0
1221, 9, T_Sinc, T_Sinc_URRR, 445.6, hit, 2, 0
1222, 9, T_Sinc, T_Sinc_URRR, 505.0, hit, 2, 0
1223, 9, T_Sinc, T_Sinc_URRR, 460.5, hit, 2, 0
1224, 9, T_Sinc, T_Sinc_DGLG, 551.9, hit, 1, 0
1225, 9, T_Sinc, T_Sinc_DGLG, 499.1, hit, 1, 0
1226, 9, T_Sinc, T_Sinc_DGLG, 390.5, hit, 1, 0
1227, 9, T_Sinc, T_Sinc_URRR, 397.9, hit, 2, 0
1228, 9, T_Sinc, T_Sinc_DGLG, 357.4, hit, 1, 0
1229, 9, T_Sinc, T_Sinc_DGLG, 352.9, hit, 1, 0
1230, 9, T_Scon, T_Scon_DRRR, 540.3, hit, 2, 0
1231, 9, T_Scon, T_Scon_DRRR, 343.8, hit, 2, 0
1232, 9, T_Scon, T_Scon_DRRR, 339.1, hit, 2, 0
1233, 9, T_Sinc, T_Sinc_URRR, 402.5, hit, 2, 0
1234, 9, T_Sinc, T_Sinc_DGLG, 386.0, hit, 1, 0
1235, 9, T_Sinc, T_Sinc_DGLG, 629.4, hit, 1, 0
1236, 9, T_Sinc, T_Sinc_URRR, 708.9, hit, 2, 0
1237, 9, T_Scon, T_Scon_DRRR, 672.3, hit, 2, 0
1238, 9, T_Sinc, T_Sinc_URRR, 515.8, hit, 2, 0
1239, 9, T_Sinc, T_Sinc_DGLG, 895.2, hit, 1, 2
1240, 9, T_Sinc, T_Sinc_URRR, 770.6, hit, 2, 0
1241, 9, T_Scon, T_Scon_UGLG, 478.0, hit, 1, 0
1242, 9, T_Sinc, T_Sinc_DGLG, 497.5, hit, 1, 0
1243, 9, T_Sinc, T_Sinc_DGLG, 932.9, hit, 1, 2
1244, 9, T_Sinc, T_Sinc_DGLG, 456.4, hit, 1, 0
1245, 9, T_Scon, T_Scon_UGLG, 571.8, hit, 1, 0
1246, 9, T_Scon, T_Scon_UGLG, 375.3, hit, 1, 0
1247, 9, T_Sinc, T_Sinc_URRR, 450.7, hit, 2, 0
1248, 9, T_Sinc, T_Sinc_URRR, 586.2, hit, 2, 0
1249, 9, T_Sinc, T_Sinc_URRR, 497.6, incorrect, 1, 1
1250, 9, T_Sinc, T_Sinc_DGLG, 433.0, hit, 1, 0
1251, 9, T_Sinc, T_Sinc_DGLG, 472.4, hit, 1, 0
1252, 9, T_Sinc, T_Sinc_DGLG, 591.8, hit, 1, 0
1253, 9, T_Sinc, T_Sinc_DGLG, 315.3, hit, 1, 0
1254, 9, T_Sinc, T_Sinc_DGLG, 358.7, hit, 1, 0
1255, 9, T_Scon, T_Scon_DRRR, 458.2, hit, 2, 0
1256, 9, T_Sinc, T_Sinc_DGLG, 737.6, hit, 1, 0
1257, 9, T_Sinc, T_Sinc_DGLG, 533.1, hit, 1, 0
1258, 9, T_Sinc, T_Sinc_URRR, 452.5, hit, 2, 0
1259, 9, T_Scon, T_Scon_UGLG, 404.0, hit, 1, 0
1260, 9, T_Sinc, T_Sinc_URRR, 399.4, hit, 2, 0
1261, 9, T_Sinc, T_Sinc_URRR, 502.6, hit, 2, 0
1262, 9, T_Scon, T_Scon_UGLG, 386.0, hit, 1, 0
1263, 9, T_Scon, T_Scon_UGLG, 517.4, hit, 1, 0
1264, 9, T_Sinc, T_Sinc_URRR, 664.9, hit, 2, 0
1265, 9, T_Sinc, T_Sinc_DGLG, 620.3, hit, 1, 0
1266, 9, T_Scon, T_Scon_UGLG, 459.8, hit, 1, 0
1267, 9, T_Sinc, T_Sinc_URRR, 383.2, hit, 2, 0
1268, 9, T_Sinc, T_Sinc_URRR, 466.6, hit, 2, 0
1269, 9, T_Sinc, T_Sinc_URRR, 574.0, hit, 2, 0
1270, 9, T_Sinc, T_Sinc_URRR, 521.5, hit, 2, 0
1271, 9, T_Scon, T_Scon_DRRR, 421.0, hit, 2, 0
1272, 9, T_Sinc, T_Sinc_URRR, 608.4, hit, 2, 0
1273, 9, T_Sinc, T_Sinc_DGLG, 527.8, hit, 1, 0
1274, 9, T_Scon, T_Scon_DRRR, 571.2, hit, 2, 0
1275, 9, T_Sinc, T_Sinc_URRR, 518.7, hit, 2, 0
1276, 9, T_Sinc, T_Sinc_URRR, 394.1, hit, 2, 0
1277, 9, T_Scon, T_Scon_DRRR, 385.6, hit, 2, 0
1278, 9, T_Sinc, T_Sinc_DGLG, 576.9, hit, 1, 0
1279, 9, T_Sinc, T_Sinc_URRR, 508.4, hit, 2, 0
1280, 9, T_Scon, T_Scon_DRRR, 443.8, hit, 2, 0
1281, 9, T_Sinc, T_Sinc_URRR, 435.3, hit, 2, 0
1282, 9, T_Sinc, T_Sinc_DGLG, 338.7, hit, 1, 0
1283, 9, T_Scon, T_Scon_DRRR, 582.2, hit, 2, 0
1284, 9, T_Sinc, T_Sinc_URRR, 393.6, hit, 2, 0
1285, 9, T_Sinc, T_Sinc_URRR, 389.1, hit, 2, 0
1286, 9, T_Sinc, T_Sinc_URRR, 600.5, hit, 2, 0
1287, 9, T_Sinc, T_Sinc_DGLG, 492.0, hit, 1, 0
1288, 9, T_Sinc, T_Sinc_URRR, 563.3, hit, 2, 0
1289, 9, T_Scon, T_Scon_UGLG, 450.8, hit, 1, 0
1290, 9, T_Scon, T_Scon_UGLG, 798.2, hit, 1, 0
1291, 9, T_Sinc, T_Sinc_DGLG, 777.6, hit, 1, 0
1292, 9, T_Sinc, T_Sinc_URRR, 453.1, hit, 2, 0
1293, 9, T_Sinc, T_Sinc_DGLG, 936.5, hit, 1, 2
1294, 9, T_Sinc, T_Sinc_URRR, 860.0, hit, 2, 0
1295, 9, T_Sinc, T_Sinc_DGLG, 503.4, hit, 1, 0
1296, 9, T_Sinc, T_Sinc_DGLG, 586.9, hit, 1, 0
