trial_index, block, condition, full_condition_code, RT, response_type, response_key, error_outlier
1,1, T_Scon, T_Scon_DGRG,494.5, hit,2,0
2,1, T_Scon, T_Scon_DGRG,361.9, hit,2,0
3,1, T_Scon, T_Scon_URLR,257.2, hit,1,0
4,1, T_Sinc, T_Sinc_UGRG,332.7, hit,2,0
5,1, T_Sinc, T_Sinc_UGRG,320.2, incorrect,1,1
6,1, T_Scon, T_Scon_DGRG,355.5, hit,2,0
7,1, T_Scon, T_Scon_URLR,383, hit,1,0
8,1, T_Scon, T_Scon_URLR,450.5, hit,1,0
9,1, T_Scon, T_Scon_URLR,429.9, hit,1,0
10,1, T_Scon, T_Scon_DGRG,257.3, hit,2,0
11,1, T_Sinc, T_Sinc_DRLR,368.8, hit,1,0
12,1, T_Scon, T_Scon_URLR,396.2, hit,1,0
13,1, T_Scon, T_Scon_URLR,375.7, hit,1,0
14,1, T_Scon, T_Scon_URLR,371.1, hit,1,0
15,1, T_Scon, T_Scon_DGRG,318.5, hit,2,0
16,1, T_Scon, T_Scon_URLR,410, hit,1,0
17,1, T_Scon, T_Scon_URLR,333.4, hit,1,0
18,1, T_Scon, T_Scon_DGRG,368.8, hit,2,0
19,1, T_Scon, T_Scon_DGRG,308.3, hit,2,0
20,1, T_Scon, T_Scon_URLR,367.7, hit,1,0
21,1, T_Scon, T_Scon_URLR,363.1, hit,1,0
22,1, T_Scon, T_Scon_URLR,262.6, hit,1,0
23,1, T_Scon, T_Scon_URLR,426, hit,1,0
24,1, T_Scon, T_Scon_URLR,369.4, hit,1,0
25,1, T_Sinc, T_Sinc_UGRG,356.9, hit,2,0
26,1, T_Scon, T_Scon_URLR,288.3, hit,1,0
27,1, T_Scon, T_Scon_URLR,263.8, hit,1,0
28,1, T_Sinc, T_Sinc_UGRG,275.2, incorrect,1,1
29,1, T_Scon, T_Scon_DGRG,454.6, hit,2,0
30,1, T_Scon, T_Scon_DGRG,262.1, hit,2,0
31,1, T_Scon, T_Scon_URLR,313.5, hit,1,0
32,1, T_Scon, T_Scon_URLR,289, hit,1,0
33,1, T_Scon, T_Scon_DGRG,328.4, hit,2,0
34,1, T_Sinc, T_Sinc_UGRG,487.8, hit,2,0
35,1, T_Sinc, T_Sinc_DRLR,479.3, hit,1,0
36,1, T_Scon, T_Scon_DGRG,358.7, hit,2,0
37,1, T_Scon, T_Scon_URLR,501.9, hit,1,0
38,1, T_Scon, T_Scon_DGRG,245.3, hit,2,0
39,1, T_Scon, T_Scon_URLR,288.8, hit,1,0
40,1, T_Scon, T_Scon_DGRG,420.2, hit,2,0
41,1, T_Scon, T_Scon_DGRG,327.6, hit,2,0
42,1, T_Scon, T_Scon_URLR,291.1, hit,1,0
43,1, T_Sinc, T_Sinc_UGRG,342.5, hit,2,0
44,1, T_Scon, T_Scon_DGRG,353.9, hit,2,0
45,1, T_Sinc, T_Sinc_DRLR,373.4, hit,1,0
46,1, T_Scon, T_Scon_URLR,584.9, hit,1,0
47,1, T_Scon, T_Scon_URLR,684.2, hit,1,2
48,1, T_Sinc, T_Sinc_UGRG,367.7, hit,2,0
49,1, T_Scon, T_Scon_DGRG,331.2, hit,2,0
50,1, T_Scon, T_Scon_DGRG,310.5, hit,2,0
51,1, T_Scon, T_Scon_DGRG,318, hit,2,0
52,1, T_Scon, T_Scon_DGRG,313.4, hit,2,0
53,1, T_Sinc, T_Sinc_UGRG,356.8, hit,2,0
54,1, T_Scon, T_Scon_DGRG,408.3, hit,2,0
55,1, T_Sinc, T_Sinc_DRLR,499.7, hit,1,0
56,1, T_Sinc, T_Sinc_UGRG,415.2, hit,2,0
57,1, T_Scon, T_Scon_DGRG,490.6, hit,2,0
58,1, T_Sinc, T_Sinc_DRLR,410, hit,1,0
59,1, T_Sinc, T_Sinc_DRLR,313.5, hit,1,0
60,1, T_Scon, T_Scon_URLR,529, hit,1,0
61,1, T_Scon, T_Scon_DGRG,360.3, hit,2,0
62,1, T_Sinc, T_Sinc_UGRG,459.8, hit,2,0
63,1, T_Sinc, T_Sinc_DRLR,419.3, hit,1,0
64,1, T_Scon, T_Scon_URLR,406.7, hit,1,0
65,1, T_Scon, T_Scon_URLR,318.1, hit,1,0
66,1, T_Scon, T_Scon_DGRG,353.6, hit,2,0
67,1, T_Sinc, T_Sinc_UGRG,445, hit,2,0
68,1, T_Scon, T_Scon_URLR,356.5, hit,1,0
69,1, T_Scon, T_Scon_DGRG,539.8, hit,2,0
70,1, T_Sinc, T_Sinc_UGRG,447.3, hit,2,0
71,1, T_Scon, T_Scon_URLR,342.8, hit,1,0
72,1, T_Scon, T_Scon_DGRG,394.1, hit,2,0
73,1, T_Scon, T_Scon_DGRG,401.4, hit,2,0
74,1, T_Scon, T_Scon_URLR,396.8, hit,1,0
75,1, T_Sinc, T_Sinc_UGRG,464.2, hit,2,0
76,1, T_Sinc, T_Sinc_DRLR,371.6, hit,1,0
77,1, T_Scon, T_Scon_URLR,295.1, hit,1,0
78,1, T_Scon, T_Scon_DGRG,330.6, hit,2,0
79,1, T_Scon, T_Scon_URLR,473.9, hit,1,0
80,1, T_Scon, T_Scon_DGRG,349.4, hit,2,0
81,1, T_Scon, T_Scon_DGRG,432.9, hit,2,0
82,1, T_Scon, T_Scon_DGRG,400.3, hit,2,0
83,1, T_Scon, T_Scon_DGRG,427.7, hit,2,0
84,1, T_Scon, T_Scon_DGRG,343.1, hit,2,0
85,1, T_Scon, T_Scon_DGRG,326.6, hit,2,0
86,1, T_Sinc, T_Sinc_DRLR,374, hit,1,0
87,1, T_Sinc, T_Sinc_UGRG,305.4, hit,2,0
88,1, T_Scon, T_Scon_URLR,396.9, hit,1,0
89,1, T_Scon, T_Scon_URLR,360.4, hit,1,0
90,1, T_Scon, T_Scon_DGRG,395.8, hit,2,0
91,1, T_Scon, T_Scon_DGRG,339.2, hit,2,0
92,1, T_Scon, T_Scon_DGRG,378.7, hit,2,0
93,1, T_Sinc, T_Sinc_DRLR,442.1, hit,1,0
94,1, T_Sinc, T_Sinc_DRLR,609.6, hit,1,0
95,1, T_Scon, T_Scon_URLR,352.9, hit,1,0
96,1, T_Sinc, T_Sinc_DRLR,420.4, hit,1,0
97,1, T_Scon, T_Scon_URLR,283.9, hit,1,0
98,1, T_Scon, T_Scon_DGRG,343.3, hit,2,0
99,1, T_Scon, T_Scon_URLR,430.7, hit,1,0
100,1, T_Scon, T_Scon_URLR,346.2, hit,1,0
101,1, T_Scon, T_Scon_DGRG,349.6, hit,2,0
102,1, T_Sinc, T_Sinc_DRLR,397.1, incorrect,2,1
103,1, T_Scon, T_Scon_DGRG,332.5, hit,2,0
104,1, T_Sinc, T_Sinc_UGRG,383.9, hit,2,0
105,1, T_Scon, T_Scon_DGRG,303.4, hit,2,0
106,1, T_Scon, T_Scon_URLR,442.8, hit,1,0
107,1, T_Sinc, T_Sinc_UGRG,626.2, hit,2,0
108,1, T_Scon, T_Scon_DGRG,517.7, hit,2,0
109,1, T_Scon, T_Scon_URLR,384.9, hit,1,0
110,1, T_Scon, T_Scon_URLR,372.3, hit,1,0
111,1, T_Scon, T_Scon_DGRG,359.7, hit,2,0
112,1, T_Scon, T_Scon_URLR,307.2, hit,1,0
113,1, T_Sinc, T_Sinc_DRLR,422.5, hit,1,0
114,1, T_Scon, T_Scon_DGRG,406, hit,2,0
115,1, T_Scon, T_Scon_URLR,317.5, hit,1,0
116,1, T_Scon, T_Scon_URLR,304.9, hit,1,0
117,1, T_Scon, T_Scon_DGRG,436.3, hit,2,0
118,1, T_Scon, T_Scon_URLR,403.8, hit,1,0
119,1, T_Sinc, T_Sinc_DRLR,359.2, incorrect,2,1
120,1, T_Scon, T_Scon_URLR,370.7, hit,1,0
121,1, T_Scon, T_Scon_DGRG,446.2, hit,2,0
122,1, T_Scon, T_Scon_DGRG,345.5, hit,2,0
123,1, T_Scon, T_Scon_URLR,549, hit,1,0
124,1, T_Sinc, T_Sinc_DRLR,416.4, hit,1,0
125,1, T_Scon, T_Scon_DGRG,359.9, hit,2,0
126,1, T_Sinc, T_Sinc_DRLR,363.3, hit,1,0
127,1, T_Scon, T_Scon_DGRG,422.7, hit,2,0
128,1, T_Scon, T_Scon_URLR,402.2, hit,1,0
129,1, T_Scon, T_Scon_DGRG,397.7, hit,2,0
130,1, T_Scon, T_Scon_DGRG,537, hit,2,0
131,1, T_Scon, T_Scon_URLR,396.5, hit,1,0
132,1, T_Scon, T_Scon_DGRG,480, hit,2,0
133,1, T_Sinc, T_Sinc_UGRG,319.4, incorrect,1,1
134,1, T_Scon, T_Scon_URLR,386.8, hit,1,0
135,1, T_Sinc, T_Sinc_DRLR,450.2, hit,1,0
136,1, T_Scon, T_Scon_URLR,285.7, hit,1,0
137,1, T_Scon, T_Scon_DGRG,457.2, hit,2,0
138,1, T_Scon, T_Scon_URLR,504.5, hit,1,0
139,1, T_Scon, T_Scon_DGRG,404, hit,2,0
140,1, T_Scon, T_Scon_URLR,367.5, hit,1,0
141,1, T_Sinc, T_Sinc_UGRG,454.9, hit,2,0
142,1, T_Scon, T_Scon_DGRG,478.3, hit,2,0
143,1, T_Scon, T_Scon_URLR,285.7, hit,1,0
144,1, T_Scon, T_Scon_URLR,401.2, hit,1,0
145,2, T_Sinc, T_Sinc_UGRG,465.1, hit,2,0
146,2, T_Scon, T_Scon_DGRG,444.5, hit,2,0
147,2, T_Sinc, T_Sinc_UGRG,439.9, hit,2,0
148,2, T_Scon, T_Scon_DGRG,315.4, hit,2,0
149,2, T_Scon, T_Scon_URLR,390.8, hit,1,0
150,2, T_Scon, T_Scon_URLR,346.3, hit,1,0
151,2, T_Scon, T_Scon_DGRG,293.7, hit,2,0
152,2, T_Scon, T_Scon_DGRG,325.1, hit,2,0
153,2, T_Sinc, T_Sinc_DRLR,412.6, hit,1,0
154,2, T_Scon, T_Scon_URLR,260, hit,1,0
155,2, T_Scon, T_Scon_URLR,367.4, hit,1,0
156,2, T_Scon, T_Scon_DGRG,314.9, hit,2,0
157,2, T_Sinc, T_Sinc_UGRG,318.3, hit,2,0
158,2, T_Scon, T_Scon_URLR,397.7, hit,1,0
159,2, T_Scon, T_Scon_DGRG,345.1, hit,2,0
160,2, T_Scon, T_Scon_URLR,336.6, hit,1,0
161,2, T_Scon, T_Scon_URLR,388.1, hit,1,0
162,2, T_Scon, T_Scon_URLR,315.5, hit,1,0
163,2, T_Scon, T_Scon_URLR,278.9, hit,1,0
164,2, T_Scon, T_Scon_DGRG,258.4, hit,2,0
165,2, T_Sinc, T_Sinc_UGRG,469.9, hit,2,0
166,2, T_Scon, T_Scon_DGRG,309.2, hit,2,0
167,2, T_Scon, T_Scon_URLR,364.7, hit,1,0
168,2, T_Scon, T_Scon_DGRG,328.2, hit,2,0
169,2, T_Scon, T_Scon_DGRG,347.6, hit,2,0
170,2, T_Scon, T_Scon_DGRG,327, hit,2,0
171,2, T_Sinc, T_Sinc_DRLR,498.4, hit,1,0
172,2, T_Scon, T_Scon_URLR,469.9, hit,1,0
173,2, T_Scon, T_Scon_URLR,465.3, hit,1,0
174,2, T_Scon, T_Scon_URLR,348.7, hit,1,0
175,2, T_Scon, T_Scon_DGRG,352.2, hit,2,0
176,2, T_Scon, T_Scon_DGRG,395.6, hit,2,0
177,2, T_Sinc, T_Sinc_DRLR,459, hit,1,0
178,2, T_Scon, T_Scon_DGRG,522.5, hit,2,0
179,2, T_Scon, T_Scon_URLR,330, hit,1,0
180,2, T_Scon, T_Scon_URLR,285.3, hit,1,0
181,2, T_Sinc, T_Sinc_UGRG,488.6, hit,2,0
182,2, T_Sinc, T_Sinc_UGRG,376, hit,2,0
183,2, T_Scon, T_Scon_DGRG,287.4, hit,2,0
184,2, T_Scon, T_Scon_URLR,370.8, hit,1,0
185,2, T_Sinc, T_Sinc_DRLR,286.3, hit,1,0
186,2, T_Scon, T_Scon_DGRG,657.7, hit,2,2
187,2, T_Scon, T_Scon_URLR,357.1, hit,1,0
188,2, T_Scon, T_Scon_URLR,344.6, hit,1,0
189,2, T_Scon, T_Scon_DGRG,356, hit,2,0
190,2, T_Scon, T_Scon_DGRG,455.5, hit,2,0
191,2, T_Scon, T_Scon_DGRG,266.9, hit,2,0
192,2, T_Scon, T_Scon_URLR,438.3, hit,1,0
193,2, T_Scon, T_Scon_DGRG,501.8, hit,2,0
194,2, T_Scon, T_Scon_URLR,393.2, hit,1,0
195,2, T_Scon, T_Scon_URLR,360.6, hit,1,0
196,2, T_Sinc, T_Sinc_UGRG,428.1, hit,2,0
197,2, T_Sinc, T_Sinc_UGRG,331.5, hit,2,0
198,2, T_Scon, T_Scon_DGRG,322.9, hit,2,0
199,2, T_Scon, T_Scon_URLR,326.4, hit,1,0
200,2, T_Scon, T_Scon_DGRG,509.9, hit,2,0
201,2, T_Scon, T_Scon_DGRG,509.2, hit,2,0
202,2, T_Scon, T_Scon_URLR,300.7, hit,1,0
203,2, T_Scon, T_Scon_URLR,272.1, hit,1,0
204,2, T_Scon, T_Scon_DGRG,363.6, hit,2,0
205,2, T_Scon, T_Scon_URLR,531, hit,1,0
206,2, T_Scon, T_Scon_URLR,346.4, hit,1,0
207,2, T_Scon, T_Scon_DGRG,317.9, hit,2,0
208,2, T_Scon, T_Scon_DGRG,393.3, hit,2,0
209,2, T_Scon, T_Scon_DGRG,316.7, hit,2,0
210,2, T_Sinc, T_Sinc_DRLR,544.2, hit,1,0
211,2, T_Sinc, T_Sinc_UGRG,419.6, hit,2,0
212,2, T_Sinc, T_Sinc_UGRG,319, hit,2,0
213,2, T_Scon, T_Scon_DGRG,570.5, hit,2,0
214,2, T_Sinc, T_Sinc_DRLR,358, hit,1,0
215,2, T_Sinc, T_Sinc_DRLR,349.3, hit,1,0
216,2, T_Sinc, T_Sinc_DRLR,336.8, hit,1,0
217,2, T_Scon, T_Scon_DGRG,400, hit,2,0
218,2, T_Scon, T_Scon_URLR,311.5, hit,1,0
219,2, T_Scon, T_Scon_DGRG,246.8, hit,2,0
220,2, T_Scon, T_Scon_URLR,298.3, hit,1,0
221,2, T_Sinc, T_Sinc_DRLR,477.7, hit,1,0
222,2, T_Scon, T_Scon_DGRG,325.2, hit,2,0
223,2, T_Scon, T_Scon_DGRG,248.6, hit,2,0
224,2, T_Scon, T_Scon_URLR,252, hit,1,0
225,2, T_Scon, T_Scon_URLR,267.5, hit,1,0
226,2, T_Scon, T_Scon_URLR,251, hit,1,0
227,2, T_Scon, T_Scon_URLR,250.3, hit,1,0
228,2, T_Sinc, T_Sinc_UGRG,419.5, hit,2,0
229,2, T_Scon, T_Scon_URLR,655, hit,1,0
230,2, T_Scon, T_Scon_DGRG,390.5, hit,2,0
231,2, T_Scon, T_Scon_DGRG,273.8, hit,2,0
232,2, T_Scon, T_Scon_DGRG,245.3, hit,2,0
233,2, T_Sinc, T_Sinc_DRLR,320.8, hit,1,0
234,2, T_Scon, T_Scon_URLR,380.1, hit,1,0
235,2, T_Sinc, T_Sinc_UGRG,495.6, hit,2,0
236,2, T_Scon, T_Scon_DGRG,351.1, hit,2,0
237,2, T_Scon, T_Scon_URLR,298.5, hit,1,0
238,2, T_Scon, T_Scon_DGRG,333.9, hit,2,0
239,2, T_Scon, T_Scon_URLR,353.4, hit,1,0
240,2, T_Sinc, T_Sinc_DRLR,316.8, incorrect,2,1
241,2, T_Scon, T_Scon_DGRG,392.3, hit,2,0
242,2, T_Scon, T_Scon_DGRG,779.6, hit,2,2
243,2, T_Scon, T_Scon_URLR,379.1, hit,1,0
244,2, T_Scon, T_Scon_DGRG,578.6, hit,2,0
245,2, T_Sinc, T_Sinc_UGRG,430, hit,2,0
246,2, T_Scon, T_Scon_URLR,421.4, hit,1,0
247,2, T_Sinc, T_Sinc_UGRG,508.9, hit,2,0
248,2, T_Scon, T_Scon_DGRG,408.3, hit,2,0
249,2, T_Scon, T_Scon_URLR,359.5, incorrect,2,1
250,2, T_Scon, T_Scon_URLR,498.9, hit,1,0
251,2, T_Sinc, T_Sinc_DRLR,386.4, hit,1,0
252,2, T_Sinc, T_Sinc_UGRG,349.8, hit,2,0
253,2, T_Scon, T_Scon_DGRG,329.2, hit,2,0
254,2, T_Scon, T_Scon_DGRG,476.7, hit,2,0
255,2, T_Sinc, T_Sinc_UGRG,352.1, hit,2,0
256,2, T_Scon, T_Scon_URLR,347.6, hit,1,0
257,2, T_Sinc, T_Sinc_UGRG,422.9, hit,2,0
258,2, T_Scon, T_Scon_DGRG,338.4, hit,2,0
259,2, T_Scon, T_Scon_DGRG,285.9, hit,2,0
260,2, T_Scon, T_Scon_URLR,533.3, hit,1,0
261,2, T_Scon, T_Scon_URLR,284.7, hit,1,0
262,2, T_Scon, T_Scon_DGRG,368.2, hit,2,0
263,2, T_Scon, T_Scon_DGRG,563.6, hit,2,0
264,2, T_Sinc, T_Sinc_DRLR,331, hit,1,0
265,2, T_Sinc, T_Sinc_DRLR,286.5, hit,1,0
266,2, T_Scon, T_Scon_DGRG,273.9, hit,2,0
267,2, T_Sinc, T_Sinc_DRLR,285.3, hit,1,0
268,2, T_Scon, T_Scon_DGRG,336.8, hit,2,0
269,2, T_Scon, T_Scon_DGRG,416.2, hit,2,0
270,2, T_Sinc, T_Sinc_DRLR,459.7, hit,1,0
271,2, T_Scon, T_Scon_URLR,475.1, hit,1,0
272,2, T_Scon, T_Scon_URLR,334.5, hit,1,0
273,2, T_Scon, T_Scon_URLR,318, hit,1,0
274,2, T_Scon, T_Scon_URLR,305.4, hit,1,0
275,2, T_Scon, T_Scon_URLR,260.8, hit,1,0
276,2, T_Sinc, T_Sinc_DRLR,256.3, incorrect,2,1
277,2, T_Sinc, T_Sinc_UGRG,423.7, hit,2,0
278,2, T_Scon, T_Scon_DGRG,315.2, hit,2,0
279,2, T_Sinc, T_Sinc_DRLR,358.6, hit,1,0
280,2, T_Scon, T_Scon_DGRG,390, hit,2,0
281,2, T_Scon, T_Scon_URLR,505.5, hit,1,0
282,2, T_Scon, T_Scon_URLR,333, hit,1,0
283,2, T_Scon, T_Scon_DGRG,368.3, hit,2,0
284,2, T_Scon, T_Scon_URLR,515.8, hit,1,0
285,3, T_Scon, T_Scon_URLR,310, hit,1,0
286,3, T_Scon, T_Scon_DGRG,293.5, hit,2,0
287,3, T_Sinc, T_Sinc_DRLR,300.9, hit,1,0
288,3, T_Scon, T_Scon_DGRG,324.2, incorrect,1,1
289,3, T_Scon, T_Scon_URLR,307.7, hit,1,0
290,3, T_Scon, T_Scon_URLR,311.2, hit,1,0
291,3, T_Scon, T_Scon_DGRG,242.7, hit,2,0
292,3, T_Sinc, T_Sinc_DRLR,342, hit,1,0
293,3, T_Scon, T_Scon_DGRG,489.5, hit,2,0
294,3, T_Sinc, T_Sinc_DRLR,388.9, hit,1,0
295,3, T_Scon, T_Scon_DGRG,392.4, hit,2,0
296,3, T_Scon, T_Scon_DGRG,387.8, hit,2,0
297,3, T_Scon, T_Scon_DGRG,307.2, hit,2,0
298,3, T_Scon, T_Scon_DGRG,482.7, hit,2,0
299,3, T_Scon, T_Scon_URLR,670.1, hit,1,2
300,3, T_Sinc, T_Sinc_UGRG,453.6, hit,2,0
301,3, T_Scon, T_Scon_DGRG,313, hit,2,0
302,3, T_Scon, T_Scon_DGRG,348.4, hit,2,0
303,3, T_Scon, T_Scon_URLR,351.8, hit,1,0
304,3, T_Sinc, T_Sinc_UGRG,463.3, hit,2,0
305,3, T_Sinc, T_Sinc_DRLR,250.7, hit,1,0
306,3, T_Scon, T_Scon_URLR,646.2, hit,1,0
307,3, T_Sinc, T_Sinc_DRLR,321.7, hit,1,0
308,3, T_Sinc, T_Sinc_UGRG,477, hit,2,0
309,3, T_Scon, T_Scon_DGRG,304.5, hit,2,0
310,3, T_Scon, T_Scon_DGRG,308, hit,2,0
311,3, T_Scon, T_Scon_URLR,283.3, hit,1,0
312,3, T_Scon, T_Scon_URLR,318.8, hit,1,0
313,3, T_Scon, T_Scon_URLR,326.3, hit,1,0
314,3, T_Scon, T_Scon_DGRG,409.6, hit,2,0
315,3, T_Scon, T_Scon_URLR,345.1, hit,1,0
316,3, T_Scon, T_Scon_URLR,324.6, hit,1,0
317,3, T_Scon, T_Scon_URLR,280, hit,1,0
318,3, T_Sinc, T_Sinc_UGRG,419.4, hit,2,0
319,3, T_Scon, T_Scon_DGRG,430.9, hit,2,0
320,3, T_Sinc, T_Sinc_DRLR,338.3, hit,1,0
321,3, T_Sinc, T_Sinc_UGRG,461.5, hit,2,0
322,3, T_Scon, T_Scon_DGRG,336.9, hit,2,0
323,3, T_Scon, T_Scon_URLR,420.3, hit,1,0
324,3, T_Sinc, T_Sinc_UGRG,367.8, hit,2,0
325,3, T_Scon, T_Scon_DGRG,423.2, hit,2,0
326,3, T_Sinc, T_Sinc_UGRG,282.6, hit,2,0
327,3, T_Sinc, T_Sinc_UGRG,346.1, hit,2,0
328,3, T_Scon, T_Scon_DGRG,309.5, hit,2,0
329,3, T_Sinc, T_Sinc_DRLR,352.9, incorrect,2,1
330,3, T_Sinc, T_Sinc_DRLR,372.4, hit,1,0
331,3, T_Scon, T_Scon_URLR,295.9, hit,1,0
332,3, T_Scon, T_Scon_URLR,267.2, hit,1,0
333,3, T_Scon, T_Scon_URLR,294.7, hit,1,0
334,3, T_Scon, T_Scon_URLR,258.2, hit,1,0
335,3, T_Scon, T_Scon_URLR,281.6, hit,1,0
336,3, T_Scon, T_Scon_DGRG,373, hit,2,0
337,3, T_Scon, T_Scon_DGRG,336.4, hit,2,0
338,3, T_Scon, T_Scon_URLR,383.9, hit,1,0
339,3, T_Sinc, T_Sinc_DRLR,411.4, hit,1,0
340,3, T_Scon, T_Scon_URLR,314.7, hit,1,0
341,3, T_Scon, T_Scon_URLR,278.2, hit,1,0
342,3, T_Scon, T_Scon_DGRG,353.6, hit,2,0
343,3, T_Sinc, T_Sinc_DRLR,341.1, hit,1,0
344,3, T_Scon, T_Scon_URLR,260.6, hit,1,0
345,3, T_Scon, T_Scon_DGRG,440, hit,2,0
346,3, T_Scon, T_Scon_URLR,351.4, hit,1,0
347,3, T_Scon, T_Scon_DGRG,346.9, hit,2,0
348,3, T_Scon, T_Scon_DGRG,418.2, hit,2,0
349,3, T_Sinc, T_Sinc_DRLR,285.7, hit,1,0
350,3, T_Scon, T_Scon_URLR,373.2, hit,1,0
351,3, T_Scon, T_Scon_URLR,308.6, hit,1,0
352,3, T_Sinc, T_Sinc_UGRG,376, hit,2,0
353,3, T_Sinc, T_Sinc_UGRG,315.5, hit,2,0
354,3, T_Scon, T_Scon_DGRG,438.9, hit,2,0
355,3, T_Scon, T_Scon_DGRG,466.4, hit,2,0
356,3, T_Scon, T_Scon_DGRG,325.8, hit,2,0
357,3, T_Scon, T_Scon_DGRG,425, hit,2,0
358,3, T_Scon, T_Scon_DGRG,312.3, hit,2,0
359,3, T_Scon, T_Scon_DGRG,391.8, hit,2,0
360,3, T_Scon, T_Scon_DGRG,307.3, hit,2,0
361,3, T_Sinc, T_Sinc_DRLR,334.7, hit,1,0
362,3, T_Sinc, T_Sinc_UGRG,394.2, hit,2,0
363,3, T_Scon, T_Scon_URLR,437.5, hit,1,0
364,3, T_Scon, T_Scon_DGRG,401, hit,2,0
365,3, T_Scon, T_Scon_URLR,356.5, hit,1,0
366,3, T_Scon, T_Scon_DGRG,639.8, hit,2,0
367,3, T_Scon, T_Scon_URLR,283.3, hit,1,0
368,3, T_Sinc, T_Sinc_UGRG,470.8, hit,2,0
369,3, T_Scon, T_Scon_URLR,422.2, hit,1,0
370,3, T_Scon, T_Scon_DGRG,713.6, hit,2,2
371,3, T_Scon, T_Scon_URLR,389.1, hit,1,0
372,3, T_Sinc, T_Sinc_UGRG,364.5, hit,2,0
373,3, T_Sinc, T_Sinc_DRLR,684, hit,1,2
374,3, T_Sinc, T_Sinc_UGRG,407.4, hit,2,0
375,3, T_Scon, T_Scon_URLR,362.8, hit,1,0
376,3, T_Sinc, T_Sinc_DRLR,422.3, hit,1,0
377,3, T_Sinc, T_Sinc_DRLR,329.7, hit,1,0
378,3, T_Scon, T_Scon_URLR,349.1, hit,1,0
379,3, T_Scon, T_Scon_URLR,396.6, hit,1,0
380,3, T_Scon, T_Scon_URLR,308, hit,1,0
381,3, T_Scon, T_Scon_DGRG,319.4, hit,2,0
382,3, T_Scon, T_Scon_DGRG,302.9, hit,2,0
383,3, T_Scon, T_Scon_URLR,354.3, hit,1,0
384,3, T_Scon, T_Scon_DGRG,361.7, hit,2,0
385,3, T_Scon, T_Scon_DGRG,293.2, hit,2,0
386,3, T_Scon, T_Scon_DGRG,360.6, hit,2,0
387,3, T_Scon, T_Scon_DGRG,376.1, hit,2,0
388,3, T_Scon, T_Scon_URLR,299.5, hit,1,0
389,3, T_Scon, T_Scon_URLR,270.9, hit,1,0
390,3, T_Scon, T_Scon_DGRG,354.4, hit,2,0
391,3, T_Scon, T_Scon_DGRG,329.9, hit,2,0
392,3, T_Scon, T_Scon_DGRG,273.2, hit,2,0
393,3, T_Scon, T_Scon_DGRG,384.5, hit,2,0
394,3, T_Sinc, T_Sinc_DRLR,419.9, hit,1,0
395,3, T_Scon, T_Scon_URLR,347.2, hit,1,0
396,3, T_Scon, T_Scon_DGRG,346.7, hit,2,0
397,3, T_Scon, T_Scon_URLR,366.2, hit,1,0
398,3, T_Sinc, T_Sinc_DRLR,397.5, hit,1,0
399,3, T_Scon, T_Scon_DGRG,289, hit,2,0
400,3, T_Sinc, T_Sinc_DRLR,656.5, hit,1,2
401,3, T_Scon, T_Scon_URLR,319.9, hit,1,0
402,3, T_Scon, T_Scon_URLR,263.3, hit,1,0
403,3, T_Scon, T_Scon_URLR,274.8, hit,1,0
404,3, T_Scon, T_Scon_DGRG,406.2, hit,2,0
405,3, T_Scon, T_Scon_DGRG,721.6, hit,2,2
406,3, T_Sinc, T_Sinc_UGRG,333, hit,2,0
407,3, T_Scon, T_Scon_DGRG,424.5, hit,2,0
408,3, T_Scon, T_Scon_URLR,380, hit,1,0
409,3, T_Scon, T_Scon_URLR,335.4, hit,1,0
410,3, T_Scon, T_Scon_URLR,262.8, hit,1,0
411,3, T_Scon, T_Scon_URLR,250.3, hit,1,0
412,3, T_Scon, T_Scon_URLR,437.7, hit,1,0
413,3, T_Scon, T_Scon_URLR,253.1, hit,1,0
414,3, T_Scon, T_Scon_DGRG,352.6, hit,2,0
415,3, T_Scon, T_Scon_URLR,324, hit,1,0
416,3, T_Sinc, T_Sinc_UGRG,439.5, hit,2,0
417,3, T_Scon, T_Scon_URLR,447, hit,1,0
418,3, T_Scon, T_Scon_DGRG,378.3, hit,2,0
419,3, T_Sinc, T_Sinc_UGRG,413.8, hit,2,0
420,3, T_Sinc, T_Sinc_UGRG,529.3, hit,2,0
421,3, T_Scon, T_Scon_URLR,440.6, hit,1,0
422,3, T_Scon, T_Scon_URLR,336.1, hit,1,0
423,3, T_Scon, T_Scon_URLR,235.6, hit,1,0
424,3, T_Scon, T_Scon_URLR,327, hit,1,0
425,3, T_Scon, T_Scon_DGRG,338.5, hit,2,0
426,3, T_Scon, T_Scon_DGRG,293.8, hit,2,0
427,3, T_Scon, T_Scon_DGRG,269.3, hit,2,0
428,3, T_Scon, T_Scon_DGRG,304.8, hit,2,0
429,4, T_Scon, T_Scon_DGRG,386.9, hit,2,0
430,4, T_Sinc, T_Sinc_UGRG,290.3, hit,2,0
431,4, T_Sinc, T_Sinc_UGRG,285.8, hit,2,0
432,4, T_Sinc, T_Sinc_UGRG,281.1, hit,2,0
433,4, T_Sinc, T_Sinc_UGRG,284.6, hit,2,0
434,4, T_Sinc, T_Sinc_UGRG,296.1, hit,2,0
435,4, T_Sinc, T_Sinc_UGRG,283.5, hit,2,0
436,4, T_Sinc, T_Sinc_UGRG,270.9, hit,2,0
437,4, T_Sinc, T_Sinc_UGRG,230.4, hit,2,0
438,4, T_Scon, T_Scon_URLR,373.9, hit,1,0
439,4, T_Sinc, T_Sinc_UGRG,393.3, hit,2,0
440,4, T_Sinc, T_Sinc_UGRG,264.6, hit,2,0
441,4, T_Sinc, T_Sinc_DRLR,340.1, hit,1,0
442,4, T_Scon, T_Scon_URLR,335.6, hit,1,0
443,4, T_Sinc, T_Sinc_DRLR,267, hit,1,0
444,4, T_Sinc, T_Sinc_DRLR,294.4, hit,1,0
445,4, T_Sinc, T_Sinc_DRLR,249.9, hit,1,0
446,4, T_Sinc, T_Sinc_UGRG,333.3, hit,2,0
447,4, T_Scon, T_Scon_DGRG,260.8, hit,2,0
448,4, T_Sinc, T_Sinc_UGRG,372.2, hit,2,0
449,4, T_Sinc, T_Sinc_DRLR,327.6, hit,1,0
450,4, T_Sinc, T_Sinc_DRLR,303.1, hit,1,0
451,4, T_Sinc, T_Sinc_UGRG,362.5, hit,2,0
452,4, T_Sinc, T_Sinc_DRLR,373.9, hit,1,0
453,4, T_Sinc, T_Sinc_UGRG,309.4, hit,2,0
454,4, T_Sinc, T_Sinc_DRLR,348.9, hit,1,0
455,4, T_Sinc, T_Sinc_UGRG,432.2, hit,2,0
456,4, T_Sinc, T_Sinc_UGRG,411.7, hit,2,0
457,4, T_Scon, T_Scon_DGRG,423.1, hit,2,0
458,4, T_Sinc, T_Sinc_UGRG,334.6, hit,2,0
459,4, T_Sinc, T_Sinc_UGRG,342.1, hit,2,0
460,4, T_Sinc, T_Sinc_UGRG,297.4, hit,2,0
461,4, T_Scon, T_Scon_URLR,440.9, hit,1,0
462,4, T_Sinc, T_Sinc_UGRG,300.4, hit,2,0
463,4, T_Sinc, T_Sinc_DRLR,463.8, hit,1,0
464,4, T_Sinc, T_Sinc_UGRG,255.2, hit,2,0
465,4, T_Sinc, T_Sinc_UGRG,394.4, hit,2,0
466,4, T_Scon, T_Scon_URLR,541.8, hit,1,0
467,4, T_Scon, T_Scon_DGRG,345.2, hit,2,0
468,4, T_Sinc, T_Sinc_UGRG,380.7, hit,2,0
469,4, T_Scon, T_Scon_DGRG,272.1, hit,2,0
470,4, T_Sinc, T_Sinc_DRLR,347.5, hit,1,0
471,4, T_Sinc, T_Sinc_DRLR,331, hit,1,0
472,4, T_Sinc, T_Sinc_DRLR,286.4, incorrect,2,1
473,4, T_Sinc, T_Sinc_DRLR,333.9, hit,1,0
474,4, T_Sinc, T_Sinc_DRLR,273.3, hit,1,0
475,4, T_Scon, T_Scon_DGRG,376.7, hit,2,0
476,4, T_Sinc, T_Sinc_DRLR,348.2, hit,1,0
477,4, T_Sinc, T_Sinc_DRLR,291.7, hit,1,0
478,4, T_Sinc, T_Sinc_UGRG,527.1, hit,2,0
479,4, T_Sinc, T_Sinc_UGRG,362.5, hit,2,0
480,4, T_Sinc, T_Sinc_UGRG,382, hit,2,0
481,4, T_Sinc, T_Sinc_UGRG,249.4, hit,2,0
482,4, T_Scon, T_Scon_URLR,428.8, hit,1,0
483,4, T_Sinc, T_Sinc_UGRG,384.2, hit,2,0
484,4, T_Scon, T_Scon_DGRG,363.7, hit,2,0
485,4, T_Sinc, T_Sinc_DRLR,347.2, hit,1,0
486,4, T_Sinc, T_Sinc_UGRG,366.6, hit,2,0
487,4, T_Sinc, T_Sinc_DRLR,326, incorrect,2,1
488,4, T_Sinc, T_Sinc_DRLR,441.5, hit,1,0
489,4, T_Sinc, T_Sinc_UGRG,364.8, hit,2,0
490,4, T_Sinc, T_Sinc_DRLR,404.3, hit,1,0
491,4, T_Sinc, T_Sinc_DRLR,343.8, hit,1,0
492,4, T_Scon, T_Scon_DGRG,383.1, hit,2,0
493,4, T_Sinc, T_Sinc_DRLR,378.6, hit,1,0
494,4, T_Sinc, T_Sinc_DRLR,254.1, hit,1,0
495,4, T_Scon, T_Scon_URLR,429.5, hit,1,0
496,4, T_Scon, T_Scon_DGRG,480.9, hit,2,0
497,4, T_Sinc, T_Sinc_UGRG,384.3, hit,2,0
498,4, T_Sinc, T_Sinc_DRLR,439.8, hit,1,0
499,4, T_Sinc, T_Sinc_UGRG,419.3, hit,2,0
500,4, T_Scon, T_Scon_DGRG,554.6, hit,2,0
501,4, T_Sinc, T_Sinc_DRLR,437.9, hit,1,0
502,4, T_Scon, T_Scon_URLR,329.3, hit,1,0
503,4, T_Sinc, T_Sinc_UGRG,384.7, hit,2,0
504,4, T_Sinc, T_Sinc_DRLR,424.2, hit,1,0
505,4, T_Sinc, T_Sinc_UGRG,307.6, hit,2,0
506,4, T_Sinc, T_Sinc_UGRG,311.1, incorrect,1,1
507,4, T_Sinc, T_Sinc_DRLR,282.4, hit,1,0
508,4, T_Sinc, T_Sinc_DRLR,413.9, hit,1,0
509,4, T_Scon, T_Scon_URLR,401.4, hit,1,0
510,4, T_Sinc, T_Sinc_UGRG,300.7, hit,2,0
511,4, T_Scon, T_Scon_URLR,476.2, hit,1,0
512,4, T_Scon, T_Scon_URLR,351.7, hit,1,0
513,4, T_Scon, T_Scon_DGRG,443.1, hit,2,0
514,4, T_Scon, T_Scon_URLR,394.5, hit,1,0
515,4, T_Sinc, T_Sinc_DRLR,469.9, hit,1,0
516,4, T_Sinc, T_Sinc_DRLR,233.4, hit,1,0
517,4, T_Sinc, T_Sinc_DRLR,352.8, hit,1,0
518,4, T_Sinc, T_Sinc_DRLR,316.2, hit,1,0
519,4, T_Sinc, T_Sinc_UGRG,555.7, hit,2,0
520,4, T_Sinc, T_Sinc_DRLR,339.2, hit,1,0
521,4, T_Sinc, T_Sinc_DRLR,254.6, hit,1,0
522,4, T_Scon, T_Scon_URLR,474, hit,1,0
523,4, T_Scon, T_Scon_DGRG,333.5, hit,2,0
524,4, T_Sinc, T_Sinc_DRLR,500.9, hit,1,0
525,4, T_Sinc, T_Sinc_DRLR,336.3, hit,1,0
526,4, T_Scon, T_Scon_URLR,387.8, hit,1,0
527,4, T_Sinc, T_Sinc_DRLR,331.2, hit,1,0
528,4, T_Sinc, T_Sinc_DRLR,302.6, hit,1,0
529,4, T_Sinc, T_Sinc_DRLR,290.1, hit,1,0
530,4, T_Sinc, T_Sinc_UGRG,389.5, hit,2,0
531,4, T_Scon, T_Scon_URLR,441, hit,1,0
532,4, T_Sinc, T_Sinc_UGRG,284.4, hit,2,0
533,4, T_Sinc, T_Sinc_DRLR,287.8, hit,1,0
534,4, T_Sinc, T_Sinc_UGRG,383.3, hit,2,0
535,4, T_Sinc, T_Sinc_DRLR,442.7, hit,1,0
536,4, T_Sinc, T_Sinc_DRLR,526.1, hit,1,0
537,4, T_Scon, T_Scon_DGRG,365.4, hit,2,0
538,4, T_Sinc, T_Sinc_DRLR,392.8, hit,1,0
539,4, T_Sinc, T_Sinc_UGRG,396.2, hit,2,0
540,4, T_Sinc, T_Sinc_UGRG,331.6, hit,2,0
541,4, T_Sinc, T_Sinc_DRLR,259.1, hit,1,0
542,4, T_Sinc, T_Sinc_UGRG,374.5, hit,2,0
543,4, T_Sinc, T_Sinc_UGRG,353.9, hit,2,0
544,4, T_Sinc, T_Sinc_DRLR,353.3, hit,1,0
545,4, T_Scon, T_Scon_URLR,372.8, hit,1,0
546,4, T_Sinc, T_Sinc_DRLR,324.3, hit,1,0
547,4, T_Scon, T_Scon_URLR,519.6, hit,1,0
548,4, T_Sinc, T_Sinc_UGRG,363.1, hit,2,0
549,4, T_Sinc, T_Sinc_UGRG,402.6, hit,2,0
550,4, T_Scon, T_Scon_URLR,318, hit,1,0
551,4, T_Sinc, T_Sinc_DRLR,389.4, hit,1,0
552,4, T_Sinc, T_Sinc_UGRG,560.9, hit,2,0
553,4, T_Sinc, T_Sinc_UGRG,548.3, hit,2,0
554,4, T_Sinc, T_Sinc_DRLR,395.8, hit,1,0
555,4, T_Scon, T_Scon_DGRG,347.2, hit,2,0
556,4, T_Sinc, T_Sinc_DRLR,390.6, hit,1,0
557,4, T_Scon, T_Scon_URLR,442.1, hit,1,0
558,4, T_Sinc, T_Sinc_UGRG,569.5, hit,2,0
559,4, T_Sinc, T_Sinc_DRLR,365, hit,1,0
560,4, T_Sinc, T_Sinc_UGRG,288.4, hit,2,0
561,4, T_Sinc, T_Sinc_DRLR,459.8, hit,1,0
562,4, T_Scon, T_Scon_DGRG,495.3, hit,2,0
563,4, T_Sinc, T_Sinc_UGRG,474.6, hit,2,0
564,4, T_Scon, T_Scon_DGRG,294.1, hit,2,0
565,4, T_Scon, T_Scon_DGRG,353.6, hit,2,0
566,4, T_Sinc, T_Sinc_DRLR,445.1, hit,1,0
567,4, T_Sinc, T_Sinc_UGRG,400.4, hit,2,0
568,4, T_Sinc, T_Sinc_DRLR,387.9, hit,1,0
569,4, T_Sinc, T_Sinc_DRLR,319.4, hit,1,0
570,4, T_Sinc, T_Sinc_UGRG,458.7, hit,2,0
571,4, T_Sinc, T_Sinc_UGRG,322.2, hit,2,0
572,4, T_Scon, T_Scon_DGRG,269.6, incorrect,1,1
573,5, T_Sinc, T_Sinc_UGRG,420.5, hit,2,0
574,5, T_Sinc, T_Sinc_UGRG,239.9, hit,2,0
575,5, T_Sinc, T_Sinc_UGRG,231.4, hit,2,0
576,5, T_Sinc, T_Sinc_DRLR,338.8, hit,1,0
577,5, T_Scon, T_Scon_URLR,286.3, hit,1,0
578,5, T_Sinc, T_Sinc_DRLR,265.7, hit,1,0
579,5, T_Sinc, T_Sinc_UGRG,365.1, hit,2,0
580,5, T_Sinc, T_Sinc_DRLR,348.5, hit,1,0
581,5, T_Sinc, T_Sinc_UGRG,404, hit,2,0
582,5, T_Sinc, T_Sinc_UGRG,303.5, hit,2,0
583,5, T_Sinc, T_Sinc_DRLR,314.8, hit,1,0
584,5, T_Sinc, T_Sinc_DRLR,478.3, hit,1,0
585,5, T_Sinc, T_Sinc_UGRG,353.8, hit,2,0
586,5, T_Sinc, T_Sinc_UGRG,329.1, hit,2,0
587,5, T_Sinc, T_Sinc_DRLR,456.6, hit,1,0
588,5, T_Sinc, T_Sinc_UGRG,348, hit,2,0
589,5, T_Sinc, T_Sinc_UGRG,379.5, hit,2,0
590,5, T_Sinc, T_Sinc_DRLR,470.9, hit,1,0
591,5, T_Scon, T_Scon_URLR,326.3, hit,1,0
592,5, T_Sinc, T_Sinc_DRLR,205.8, hit,1,0
593,5, T_Scon, T_Scon_URLR,261.3, hit,1,0
594,5, T_Sinc, T_Sinc_DRLR,288.6, hit,1,0
595,5, T_Sinc, T_Sinc_UGRG,420.1, hit,2,0
596,5, T_Sinc, T_Sinc_DRLR,351.6, hit,1,0
597,5, T_Scon, T_Scon_URLR,435, hit,1,0
598,5, T_Scon, T_Scon_URLR,270.4, hit,1,0
599,5, T_Sinc, T_Sinc_DRLR,313.8, hit,1,0
600,5, T_Sinc, T_Sinc_UGRG,581.3, hit,2,0
601,5, T_Sinc, T_Sinc_DRLR,364.8, hit,1,0
602,5, T_Scon, T_Scon_URLR,292.1, hit,1,0
603,5, T_Sinc, T_Sinc_DRLR,255.6, hit,1,0
604,5, T_Sinc, T_Sinc_DRLR,283.1, hit,1,0
605,5, T_Scon, T_Scon_DGRG,318.6, hit,2,0
606,5, T_Sinc, T_Sinc_UGRG,313.9, hit,2,0
607,5, T_Sinc, T_Sinc_UGRG,357.3, hit,2,0
608,5, T_Sinc, T_Sinc_UGRG,308.8, hit,2,0
609,5, T_Sinc, T_Sinc_DRLR,428.1, hit,1,0
610,5, T_Sinc, T_Sinc_DRLR,379.4, hit,1,0
611,5, T_Scon, T_Scon_DGRG,306.9, hit,2,0
612,5, T_Sinc, T_Sinc_UGRG,298.3, hit,2,0
613,5, T_Scon, T_Scon_DGRG,277.7, hit,2,0
614,5, T_Sinc, T_Sinc_DRLR,309.1, hit,1,0
615,5, T_Sinc, T_Sinc_DRLR,472.6, hit,1,0
616,5, T_Sinc, T_Sinc_UGRG,528.1, hit,2,0
617,5, T_Scon, T_Scon_DGRG,331.4, hit,2,0
618,5, T_Scon, T_Scon_DGRG,298.9, hit,2,0
619,5, T_Sinc, T_Sinc_DRLR,570.4, hit,1,0
620,5, T_Sinc, T_Sinc_DRLR,281.8, hit,1,0
621,5, T_Scon, T_Scon_URLR,269.2, hit,1,0
622,5, T_Sinc, T_Sinc_UGRG,392.7, hit,2,0
623,5, T_Scon, T_Scon_URLR,276.1, hit,1,0
624,5, T_Scon, T_Scon_URLR,375.5, hit,1,0
625,5, T_Scon, T_Scon_DGRG,363, hit,2,0
626,5, T_Scon, T_Scon_URLR,326.4, hit,1,0
627,5, T_Sinc, T_Sinc_UGRG,381.9, hit,2,0
628,5, T_Sinc, T_Sinc_UGRG,265.3, hit,2,0
629,5, T_Sinc, T_Sinc_UGRG,280.7, hit,2,0
630,5, T_Sinc, T_Sinc_UGRG,288.2, hit,2,0
631,5, T_Sinc, T_Sinc_UGRG,251.5, hit,2,0
632,5, T_Sinc, T_Sinc_UGRG,359, hit,2,0
633,5, T_Sinc, T_Sinc_DRLR,330.5, hit,1,0
634,5, T_Scon, T_Scon_DGRG,401.9, hit,2,0
635,5, T_Scon, T_Scon_URLR,581.4, hit,1,0
636,5, T_Sinc, T_Sinc_UGRG,400.8, hit,2,0
637,5, T_Sinc, T_Sinc_DRLR,308.2, hit,1,0
638,5, T_Sinc, T_Sinc_DRLR,267.7, hit,1,0
639,5, T_Sinc, T_Sinc_DRLR,271.2, hit,1,0
640,5, T_Sinc, T_Sinc_DRLR,258.5, hit,1,0
641,5, T_Sinc, T_Sinc_DRLR,254, hit,1,0
642,5, T_Scon, T_Scon_URLR,297.4, hit,1,0
643,5, T_Sinc, T_Sinc_DRLR,320.8, hit,1,0
644,5, T_Sinc, T_Sinc_DRLR,232.3, hit,1,0
645,5, T_Sinc, T_Sinc_UGRG,423.5, hit,2,0
646,5, T_Sinc, T_Sinc_DRLR,394.8, hit,1,0
647,5, T_Scon, T_Scon_DGRG,470.3, hit,2,0
648,5, T_Sinc, T_Sinc_UGRG,433.8, hit,2,0
649,5, T_Sinc, T_Sinc_DRLR,405.1, hit,1,0
650,5, T_Sinc, T_Sinc_DRLR,496.6, hit,1,0
651,5, T_Sinc, T_Sinc_UGRG,292.1, hit,2,0
652,5, T_Scon, T_Scon_DGRG,415.5, hit,2,0
653,5, T_Sinc, T_Sinc_UGRG,390.9, hit,2,0
654,5, T_Sinc, T_Sinc_DRLR,386.4, hit,1,0
655,5, T_Sinc, T_Sinc_DRLR,397.8, hit,1,0
656,5, T_Sinc, T_Sinc_UGRG,353.3, hit,2,0
657,5, T_Sinc, T_Sinc_DRLR,364.7, incorrect,2,1
658,5, T_Sinc, T_Sinc_UGRG,308.1, hit,2,0
659,5, T_Sinc, T_Sinc_UGRG,359.6, hit,2,0
660,5, T_Sinc, T_Sinc_DRLR,410.9, hit,1,0
661,5, T_Scon, T_Scon_DGRG,518.4, hit,2,0
662,5, T_Scon, T_Scon_DGRG,453.9, hit,2,0
663,5, T_Sinc, T_Sinc_UGRG,273.4, hit,2,0
664,5, T_Scon, T_Scon_URLR,348.7, hit,1,0
665,5, T_Sinc, T_Sinc_DRLR,400.2, hit,1,0
666,5, T_Sinc, T_Sinc_UGRG,331.6, hit,2,0
667,5, T_Sinc, T_Sinc_DRLR,391, hit,1,0
668,5, T_Sinc, T_Sinc_UGRG,358.4, hit,2,0
669,5, T_Sinc, T_Sinc_DRLR,581.9, hit,1,0
670,5, T_Sinc, T_Sinc_UGRG,385.4, hit,2,0
671,5, T_Sinc, T_Sinc_DRLR,428.8, hit,1,0
672,5, T_Sinc, T_Sinc_UGRG,388.2, hit,2,0
673,5, T_Sinc, T_Sinc_DRLR,439.7, hit,1,0
674,5, T_Sinc, T_Sinc_UGRG,251.1, hit,2,0
675,5, T_Sinc, T_Sinc_UGRG,294.5, hit,2,0
676,5, T_Sinc, T_Sinc_DRLR,298, hit,1,0
677,5, T_Sinc, T_Sinc_DRLR,429.4, hit,1,0
678,5, T_Sinc, T_Sinc_UGRG,408.9, hit,2,0
679,5, T_Sinc, T_Sinc_UGRG,280.3, hit,2,0
680,5, T_Sinc, T_Sinc_DRLR,507.7, hit,1,0
681,5, T_Sinc, T_Sinc_DRLR,439, hit,1,0
682,5, T_Sinc, T_Sinc_UGRG,362.3, hit,2,0
683,5, T_Scon, T_Scon_DGRG,305.8, hit,2,0
684,5, T_Sinc, T_Sinc_UGRG,525.2, hit,2,0
685,5, T_Sinc, T_Sinc_DRLR,312.7, hit,1,0
686,5, T_Sinc, T_Sinc_UGRG,368.1, hit,2,0
687,5, T_Sinc, T_Sinc_UGRG,427.5, hit,2,0
688,5, T_Sinc, T_Sinc_DRLR,351, hit,1,0
689,5, T_Sinc, T_Sinc_UGRG,574.4, hit,2,0
690,5, T_Sinc, T_Sinc_UGRG,369.8, hit,2,0
691,5, T_Sinc, T_Sinc_DRLR,369.3, hit,1,0
692,5, T_Scon, T_Scon_DGRG,388.7, hit,2,0
693,5, T_Scon, T_Scon_URLR,432.2, hit,1,0
694,5, T_Scon, T_Scon_URLR,423.5, hit,1,0
695,5, T_Scon, T_Scon_URLR,379, hit,1,0
696,5, T_Sinc, T_Sinc_DRLR,282.5, incorrect,2,1
697,5, T_Scon, T_Scon_URLR,266, hit,1,0
698,5, T_Scon, T_Scon_DGRG,457.3, hit,2,0
699,5, T_Sinc, T_Sinc_DRLR,364.8, hit,1,0
700,5, T_Scon, T_Scon_DGRG,452.3, hit,2,0
701,5, T_Scon, T_Scon_URLR,327.7, hit,1,0
702,5, T_Sinc, T_Sinc_DRLR,363.1, hit,1,0
703,5, T_Sinc, T_Sinc_DRLR,282.5, hit,1,0
704,5, T_Sinc, T_Sinc_UGRG,390, hit,2,0
705,5, T_Sinc, T_Sinc_UGRG,425.5, hit,2,0
706,5, T_Sinc, T_Sinc_UGRG,516.8, hit,2,0
707,5, T_Sinc, T_Sinc_DRLR,296.3, hit,1,0
708,5, T_Scon, T_Scon_DGRG,395.8, hit,2,0
709,5, T_Scon, T_Scon_DGRG,375.2, hit,2,0
710,5, T_Sinc, T_Sinc_UGRG,322.6, hit,2,0
711,5, T_Sinc, T_Sinc_UGRG,310.1, hit,2,0
712,5, T_Scon, T_Scon_DGRG,305.5, hit,2,0
713,5, T_Sinc, T_Sinc_DRLR,369, hit,1,0
714,5, T_Sinc, T_Sinc_UGRG,412.4, hit,2,0
715,5, T_Sinc, T_Sinc_DRLR,331.8, hit,1,0
716,5, T_Sinc, T_Sinc_UGRG,467.3, hit,2,0
717,6, T_Sinc, T_Sinc_UGRG,383.1, hit,2,0
718,6, T_Sinc, T_Sinc_UGRG,298.5, hit,2,0
719,6, T_Sinc, T_Sinc_UGRG,269.9, hit,2,0
720,6, T_Sinc, T_Sinc_UGRG,257.4, hit,2,0
721,6, T_Scon, T_Scon_URLR,276.8, hit,1,0
722,6, T_Scon, T_Scon_DGRG,428.3, hit,2,0
723,6, T_Scon, T_Scon_DGRG,303.6, hit,2,0
724,6, T_Scon, T_Scon_URLR,315.1, hit,1,0
725,6, T_Sinc, T_Sinc_UGRG,418.6, hit,2,0
726,6, T_Sinc, T_Sinc_DRLR,498, hit,1,0
727,6, T_Sinc, T_Sinc_UGRG,345.4, hit,2,0
728,6, T_Sinc, T_Sinc_DRLR,276.9, hit,1,0
729,6, T_Scon, T_Scon_DGRG,348.3, hit,2,0
730,6, T_Scon, T_Scon_URLR,299.8, hit,1,0
731,6, T_Sinc, T_Sinc_UGRG,495.2, hit,2,0
732,6, T_Sinc, T_Sinc_DRLR,338.6, hit,1,0
733,6, T_Sinc, T_Sinc_UGRG,346.1, hit,2,0
734,6, T_Sinc, T_Sinc_DRLR,445.5, hit,1,0
735,6, T_Sinc, T_Sinc_DRLR,320.9, hit,1,0
736,6, T_Sinc, T_Sinc_DRLR,276.4, hit,1,0
737,6, T_Scon, T_Scon_DGRG,323.8, hit,2,0
738,6, T_Scon, T_Scon_URLR,351.2, hit,1,0
739,6, T_Sinc, T_Sinc_UGRG,590.7, hit,2,0
740,6, T_Sinc, T_Sinc_DRLR,402.1, hit,1,0
741,6, T_Sinc, T_Sinc_DRLR,277.5, hit,1,0
742,6, T_Sinc, T_Sinc_UGRG,389, hit,2,0
743,6, T_Sinc, T_Sinc_DRLR,324.4, hit,1,0
744,6, T_Scon, T_Scon_DGRG,335.9, hit,2,0
745,6, T_Sinc, T_Sinc_UGRG,379.2, hit,2,0
746,6, T_Scon, T_Scon_DGRG,346.7, hit,2,0
747,6, T_Sinc, T_Sinc_DRLR,414.2, hit,1,0
748,6, T_Sinc, T_Sinc_DRLR,465.6, hit,1,0
749,6, T_Scon, T_Scon_URLR,381, hit,1,0
750,6, T_Sinc, T_Sinc_DRLR,260.5, hit,1,0
751,6, T_Sinc, T_Sinc_DRLR,280, hit,1,0
752,6, T_Scon, T_Scon_DGRG,403.3, hit,2,0
753,6, T_Sinc, T_Sinc_DRLR,482.6, hit,1,0
754,6, T_Sinc, T_Sinc_UGRG,250, hit,2,0
755,6, T_Sinc, T_Sinc_DRLR,437.3, hit,1,0
756,6, T_Sinc, T_Sinc_DRLR,292.8, hit,1,0
757,6, T_Scon, T_Scon_DGRG,324.3, hit,2,0
758,6, T_Sinc, T_Sinc_UGRG,323.7, hit,2,0
759,6, T_Sinc, T_Sinc_DRLR,303.2, hit,1,0
760,6, T_Sinc, T_Sinc_UGRG,314.6, hit,2,0
761,6, T_Sinc, T_Sinc_DRLR,366, incorrect,2,1
762,6, T_Sinc, T_Sinc_UGRG,237.5, hit,2,0
763,6, T_Scon, T_Scon_DGRG,288.9, hit,2,0
764,6, T_Scon, T_Scon_DGRG,300.3, hit,2,0
765,6, T_Sinc, T_Sinc_DRLR,295.8, hit,1,0
766,6, T_Sinc, T_Sinc_UGRG,387.3, hit,2,0
767,6, T_Scon, T_Scon_URLR,350.6, hit,1,0
768,6, T_Sinc, T_Sinc_UGRG,422.1, hit,2,0
769,6, T_Sinc, T_Sinc_UGRG,293.6, hit,2,0
770,6, T_Sinc, T_Sinc_DRLR,400.9, hit,1,0
771,6, T_Scon, T_Scon_URLR,320.4, hit,1,0
772,6, T_Sinc, T_Sinc_UGRG,555.8, hit,2,0
773,6, T_Sinc, T_Sinc_DRLR,335.3, hit,1,0
774,6, T_Sinc, T_Sinc_UGRG,562.7, hit,2,0
775,6, T_Sinc, T_Sinc_UGRG,582.1, hit,2,0
776,6, T_Sinc, T_Sinc_DRLR,369.6, hit,1,0
777,6, T_Scon, T_Scon_URLR,421.1, hit,1,0
778,6, T_Sinc, T_Sinc_DRLR,288.4, hit,1,0
779,6, T_Sinc, T_Sinc_DRLR,251.9, hit,1,0
780,6, T_Sinc, T_Sinc_UGRG,339.4, hit,2,0
781,6, T_Sinc, T_Sinc_UGRG,334.7, hit,2,0
782,6, T_Sinc, T_Sinc_UGRG,250.2, hit,2,0
783,6, T_Scon, T_Scon_URLR,261.6, hit,1,0
784,6, T_Sinc, T_Sinc_DRLR,537.1, hit,1,0
785,6, T_Sinc, T_Sinc_UGRG,356.6, hit,2,0
786,6, T_Sinc, T_Sinc_DRLR,591.9, hit,1,0
787,6, T_Sinc, T_Sinc_DRLR,459.4, hit,1,0
788,6, T_Sinc, T_Sinc_UGRG,334.9, hit,2,0
789,6, T_Sinc, T_Sinc_UGRG,450, hit,2,0
790,6, T_Sinc, T_Sinc_UGRG,345.4, hit,2,0
791,6, T_Sinc, T_Sinc_DRLR,324.9, hit,1,0
792,6, T_Sinc, T_Sinc_UGRG,252.3, hit,2,0
793,6, T_Scon, T_Scon_DGRG,271.7, hit,2,0
794,6, T_Sinc, T_Sinc_UGRG,271.2, hit,2,0
795,6, T_Sinc, T_Sinc_UGRG,318.7, hit,2,0
796,6, T_Sinc, T_Sinc_UGRG,466, hit,2,0
797,6, T_Sinc, T_Sinc_UGRG,229.5, hit,2,0
798,6, T_Sinc, T_Sinc_DRLR,492.9, hit,1,0
799,6, T_Scon, T_Scon_DGRG,328.4, hit,2,0
800,6, T_Sinc, T_Sinc_DRLR,427.8, hit,1,0
801,6, T_Sinc, T_Sinc_UGRG,415.2, hit,2,0
802,6, T_Sinc, T_Sinc_DRLR,330.7, hit,1,0
803,6, T_Scon, T_Scon_URLR,354.2, hit,1,0
804,6, T_Scon, T_Scon_URLR,309.6, hit,1,0
805,6, T_Sinc, T_Sinc_DRLR,377, hit,1,0
806,6, T_Sinc, T_Sinc_UGRG,364.5, hit,2,0
807,6, T_Sinc, T_Sinc_UGRG,391.9, hit,2,0
808,6, T_Sinc, T_Sinc_DRLR,295.3, hit,1,0
809,6, T_Sinc, T_Sinc_UGRG,394.8, hit,2,0
810,6, T_Sinc, T_Sinc_DRLR,606.2, hit,1,0
811,6, T_Sinc, T_Sinc_DRLR,385.7, hit,1,0
812,6, T_Sinc, T_Sinc_DRLR,329, hit,1,0
813,6, T_Sinc, T_Sinc_DRLR,348.5, hit,1,0
814,6, T_Sinc, T_Sinc_UGRG,360, hit,2,0
815,6, T_Scon, T_Scon_DGRG,467.4, hit,2,0
816,6, T_Scon, T_Scon_DGRG,298.8, incorrect,1,1
817,6, T_Sinc, T_Sinc_UGRG,426.3, hit,2,0
818,6, T_Sinc, T_Sinc_DRLR,437.7, hit,1,0
819,6, T_Sinc, T_Sinc_UGRG,373.2, hit,2,0
820,6, T_Sinc, T_Sinc_UGRG,260.6, hit,2,0
821,6, T_Sinc, T_Sinc_UGRG,416, hit,2,0
822,6, T_Sinc, T_Sinc_UGRG,315.5, hit,2,0
823,6, T_Sinc, T_Sinc_DRLR,390.9, hit,1,0
824,6, T_Sinc, T_Sinc_DRLR,414.4, hit,1,0
825,6, T_Sinc, T_Sinc_UGRG,525.6, hit,2,0
826,6, T_Scon, T_Scon_URLR,337, hit,1,0
827,6, T_Sinc, T_Sinc_UGRG,340.4, hit,2,0
828,6, T_Sinc, T_Sinc_DRLR,419.8, hit,1,0
829,6, T_Sinc, T_Sinc_UGRG,335.3, hit,2,0
830,6, T_Scon, T_Scon_URLR,266.7, hit,1,0
831,6, T_Sinc, T_Sinc_DRLR,430.2, hit,1,0
832,6, T_Sinc, T_Sinc_DRLR,281.6, hit,1,0
833,6, T_Scon, T_Scon_DGRG,389, hit,2,0
834,6, T_Sinc, T_Sinc_DRLR,264.5, hit,1,0
835,6, T_Scon, T_Scon_DGRG,287.9, hit,2,0
836,6, T_Sinc, T_Sinc_DRLR,255.3, hit,1,0
837,6, T_Scon, T_Scon_DGRG,578.8, hit,2,0
838,6, T_Sinc, T_Sinc_DRLR,334.3, hit,1,0
839,6, T_Scon, T_Scon_URLR,461.6, hit,1,0
840,6, T_Sinc, T_Sinc_UGRG,365.1, hit,2,0
841,6, T_Scon, T_Scon_URLR,472.6, hit,1,0
842,6, T_Scon, T_Scon_URLR,348, hit,1,0
843,6, T_Sinc, T_Sinc_DRLR,295.4, hit,1,0
844,6, T_Sinc, T_Sinc_UGRG,402.8, hit,2,0
845,6, T_Sinc, T_Sinc_UGRG,430.3, hit,2,0
846,6, T_Sinc, T_Sinc_UGRG,421.7, hit,2,0
847,6, T_Sinc, T_Sinc_DRLR,417.1, hit,1,0
848,6, T_Sinc, T_Sinc_UGRG,444.6, hit,2,0
849,6, T_Sinc, T_Sinc_DRLR,448.1, hit,1,0
850,6, T_Sinc, T_Sinc_DRLR,427.4, hit,1,0
851,6, T_Sinc, T_Sinc_DRLR,6.9, incorrect,2,1
852,6, T_Sinc, T_Sinc_DRLR,382.4, hit,1,0
853,6, T_Sinc, T_Sinc_UGRG,309.7, hit,2,0
854,6, T_Sinc, T_Sinc_UGRG,377.2, hit,2,0
855,6, T_Scon, T_Scon_DGRG,324.7, hit,2,0
856,6, T_Scon, T_Scon_URLR,360.1, hit,1,0
857,6, T_Scon, T_Scon_URLR,279.6, hit,1,0
858,6, T_Sinc, T_Sinc_DRLR,330.9, hit,1,0
859,6, T_Sinc, T_Sinc_DRLR,274.4, hit,1,0
860,6, T_Sinc, T_Sinc_UGRG,273.9, hit,2,0
861,7, T_Scon, T_Scon_DGRG,393.6, hit,2,0
862,7, T_Sinc, T_Sinc_UGRG,501.1, hit,2,0
863,7, T_Scon, T_Scon_URLR,372.4, hit,1,0
864,7, T_Scon, T_Scon_DGRG,403.9, hit,2,0
865,7, T_Sinc, T_Sinc_DRLR,423.3, hit,1,0
866,7, T_Scon, T_Scon_URLR,306.8, hit,1,0
867,7, T_Scon, T_Scon_URLR,326.3, hit,1,0
868,7, T_Sinc, T_Sinc_DRLR,289.6, hit,1,0
869,7, T_Scon, T_Scon_DGRG,345.1, hit,2,0
870,7, T_Sinc, T_Sinc_UGRG,500.6, hit,2,0
871,7, T_Sinc, T_Sinc_UGRG,439.9, hit,2,0
872,7, T_Scon, T_Scon_URLR,395.4, hit,1,0
873,7, T_Sinc, T_Sinc_DRLR,374.9, hit,1,0
874,7, T_Scon, T_Scon_DGRG,346.3, hit,2,0
875,7, T_Scon, T_Scon_DGRG,345.7, hit,2,0
876,7, T_Sinc, T_Sinc_DRLR,305.2, incorrect,2,1
877,7, T_Scon, T_Scon_URLR,700.6, hit,1,2
878,7, T_Scon, T_Scon_DGRG,368.1, hit,2,0
879,7, T_Scon, T_Scon_URLR,475.5, hit,1,0
880,7, T_Sinc, T_Sinc_DRLR,294.9, hit,1,0
881,7, T_Scon, T_Scon_DGRG,366.4, hit,2,0
882,7, T_Sinc, T_Sinc_DRLR,337.8, hit,1,0
883,7, T_Sinc, T_Sinc_UGRG,473.2, hit,2,0
884,7, T_Scon, T_Scon_URLR,332.7, hit,1,0
885,7, T_Scon, T_Scon_DGRG,508.1, hit,2,0
886,7, T_Scon, T_Scon_DGRG,339.5, hit,2,0
887,7, T_Scon, T_Scon_URLR,431, hit,1,0
888,7, T_Scon, T_Scon_DGRG,326.4, hit,2,0
889,7, T_Scon, T_Scon_URLR,389.9, hit,1,0
890,7, T_Sinc, T_Sinc_UGRG,365.3, hit,2,0
891,7, T_Scon, T_Scon_URLR,304.7, incorrect,2,1
892,7, T_Scon, T_Scon_URLR,260.2, hit,1,0
893,7, T_Scon, T_Scon_DGRG,311.7, hit,2,0
894,7, T_Sinc, T_Sinc_UGRG,535, hit,2,0
895,7, T_Scon, T_Scon_URLR,342.5, hit,1,0
896,7, T_Scon, T_Scon_URLR,365.9, hit,1,0
897,7, T_Scon, T_Scon_DGRG,417.1, hit,2,0
898,7, T_Sinc, T_Sinc_UGRG,344.5, hit,2,0
899,7, T_Scon, T_Scon_URLR,468, hit,1,0
900,7, T_Sinc, T_Sinc_DRLR,375.4, hit,1,0
901,7, T_Scon, T_Scon_DGRG,378.8, hit,2,0
902,7, T_Sinc, T_Sinc_UGRG,402.3, hit,2,0
903,7, T_Scon, T_Scon_URLR,333.7, hit,1,0
904,7, T_Scon, T_Scon_URLR,433.1, hit,1,0
905,7, T_Scon, T_Scon_URLR,236.6, hit,1,0
906,7, T_Scon, T_Scon_URLR,248, hit,1,0
907,7, T_Scon, T_Scon_URLR,315.5, hit,1,0
908,7, T_Sinc, T_Sinc_UGRG,362.9, hit,2,0
909,7, T_Scon, T_Scon_DGRG,334.3, hit,2,0
910,7, T_Scon, T_Scon_URLR,313.8, hit,1,0
911,7, T_Scon, T_Scon_DGRG,557.2, hit,2,0
912,7, T_Sinc, T_Sinc_DRLR,504.6, hit,1,0
913,7, T_Scon, T_Scon_DGRG,556.1, hit,2,0
914,7, T_Sinc, T_Sinc_UGRG,423.5, hit,2,0
915,7, T_Scon, T_Scon_DGRG,355, hit,2,0
916,7, T_Sinc, T_Sinc_UGRG,454.4, hit,2,0
917,7, T_Scon, T_Scon_DGRG,297.8, hit,2,0
918,7, T_Scon, T_Scon_DGRG,361.3, hit,2,0
919,7, T_Scon, T_Scon_DGRG,392.7, hit,2,0
920,7, T_Scon, T_Scon_URLR,476.1, hit,1,0
921,7, T_Scon, T_Scon_URLR,311.6, hit,1,0
922,7, T_Scon, T_Scon_DGRG,439, hit,2,0
923,7, T_Scon, T_Scon_URLR,558.4, hit,1,0
924,7, T_Scon, T_Scon_URLR,265.9, hit,1,0
925,7, T_Scon, T_Scon_URLR,273.3, hit,1,0
926,7, T_Scon, T_Scon_DGRG,604.8, hit,2,0
927,7, T_Scon, T_Scon_URLR,292.3, hit,1,0
928,7, T_Scon, T_Scon_URLR,331.6, hit,1,0
929,7, T_Sinc, T_Sinc_DRLR,327.1, hit,1,0
930,7, T_Scon, T_Scon_DGRG,638.5, hit,2,0
931,7, T_Scon, T_Scon_DGRG,426, hit,2,0
932,7, T_Scon, T_Scon_URLR,389.4, hit,1,0
933,7, T_Scon, T_Scon_DGRG,352.6, hit,2,0
934,7, T_Scon, T_Scon_URLR,364.1, hit,1,0
935,7, T_Scon, T_Scon_DGRG,327.4, hit,2,0
936,7, T_Scon, T_Scon_DGRG,514.9, hit,2,0
937,7, T_Scon, T_Scon_DGRG,434.3, hit,2,0
938,7, T_Scon, T_Scon_DGRG,325.7, hit,2,0
939,7, T_Scon, T_Scon_URLR,337.2, hit,1,0
940,7, T_Scon, T_Scon_URLR,348.6, hit,1,0
941,7, T_Scon, T_Scon_URLR,296, hit,1,0
942,7, T_Scon, T_Scon_DGRG,303.5, hit,2,0
943,7, T_Scon, T_Scon_URLR,362.9, hit,1,0
944,7, T_Scon, T_Scon_DGRG,462.3, hit,2,0
945,7, T_Scon, T_Scon_DGRG,577.8, hit,2,0
946,7, T_Scon, T_Scon_DGRG,385.2, hit,2,0
947,7, T_Scon, T_Scon_URLR,332.7, hit,1,0
948,7, T_Scon, T_Scon_URLR,292.1, hit,1,0
949,7, T_Scon, T_Scon_URLR,231.5, hit,1,0
950,7, T_Scon, T_Scon_URLR,247, hit,1,0
951,7, T_Sinc, T_Sinc_UGRG,382.4, hit,2,0
952,7, T_Scon, T_Scon_URLR,497.8, hit,1,0
953,7, T_Sinc, T_Sinc_DRLR,373.3, hit,1,0
954,7, T_Scon, T_Scon_URLR,292.8, hit,1,0
955,7, T_Scon, T_Scon_DGRG,400.1, hit,2,0
956,7, T_Sinc, T_Sinc_UGRG,387.6, hit,2,0
957,7, T_Sinc, T_Sinc_UGRG,539, hit,2,0
958,7, T_Scon, T_Scon_DGRG,350.4, hit,2,0
959,7, T_Scon, T_Scon_URLR,357.9, hit,1,0
960,7, T_Sinc, T_Sinc_DRLR,353.3, hit,1,0
961,7, T_Scon, T_Scon_DGRG,484.8, hit,2,0
962,7, T_Scon, T_Scon_DGRG,448.2, hit,2,0
963,7, T_Sinc, T_Sinc_UGRG,307.6, hit,2,0
964,7, T_Scon, T_Scon_URLR,363.1, hit,1,0
965,7, T_Sinc, T_Sinc_DRLR,358.5, hit,1,0
966,7, T_Scon, T_Scon_URLR,281.9, hit,1,0
967,7, T_Scon, T_Scon_URLR,333.4, hit,1,0
968,7, T_Scon, T_Scon_DGRG,376.9, hit,2,0
969,7, T_Sinc, T_Sinc_DRLR,328, incorrect,2,1
970,7, T_Scon, T_Scon_DGRG,231.4, hit,2,0
971,7, T_Scon, T_Scon_URLR,266.9, hit,1,0
972,7, T_Scon, T_Scon_URLR,282.3, hit,1,0
973,7, T_Scon, T_Scon_DGRG,405.7, hit,2,0
974,7, T_Sinc, T_Sinc_DRLR,325.2, incorrect,2,1
975,7, T_Scon, T_Scon_DGRG,400.6, hit,2,0
976,7, T_Sinc, T_Sinc_DRLR,364, hit,1,0
977,7, T_Scon, T_Scon_DGRG,555.5, hit,2,0
978,7, T_Scon, T_Scon_URLR,334.9, hit,1,0
979,7, T_Scon, T_Scon_DGRG,442.4, hit,2,0
980,7, T_Scon, T_Scon_DGRG,669.8, hit,2,2
981,7, T_Scon, T_Scon_URLR,337.2, hit,1,0
982,7, T_Sinc, T_Sinc_UGRG,276.7, incorrect,1,1
983,7, T_Scon, T_Scon_URLR,320.2, hit,1,0
984,7, T_Scon, T_Scon_DGRG,315.5, hit,2,0
985,7, T_Sinc, T_Sinc_DRLR,351, incorrect,2,1
986,7, T_Sinc, T_Sinc_DRLR,382.4, hit,1,0
987,7, T_Scon, T_Scon_URLR,361.9, hit,1,0
988,7, T_Scon, T_Scon_URLR,341.4, hit,1,0
989,7, T_Scon, T_Scon_URLR,280.7, hit,1,0
990,7, T_Scon, T_Scon_DGRG,636.2, hit,2,0
991,7, T_Scon, T_Scon_DGRG,351.7, hit,2,0
992,7, T_Sinc, T_Sinc_UGRG,331.1, hit,2,0
993,7, T_Sinc, T_Sinc_UGRG,294.5, hit,2,0
994,7, T_Scon, T_Scon_DGRG,306, hit,2,0
995,7, T_Scon, T_Scon_DGRG,297.4, hit,2,0
996,7, T_Scon, T_Scon_URLR,520.9, hit,1,0
997,7, T_Scon, T_Scon_DGRG,496.2, hit,2,0
998,7, T_Sinc, T_Sinc_DRLR,435.7, hit,1,0
999,7, T_Scon, T_Scon_DGRG,431.2, hit,2,0
1000,7, T_Scon, T_Scon_DGRG,786.6, hit,2,2
1001,7, T_Scon, T_Scon_DGRG,522, hit,2,0
1002,7, T_Scon, T_Scon_DGRG,289.5, hit,2,0
1003,7, T_Scon, T_Scon_URLR,588.9, hit,1,0
1004,7, T_Scon, T_Scon_URLR,320.4, hit,1,0
1005,8, T_Scon, T_Scon_DGRG,430.8, hit,2,0
1006,8, T_Sinc, T_Sinc_DRLR,358.2, hit,1,0
1007,8, T_Sinc, T_Sinc_DRLR,337.6, hit,1,0
1008,8, T_Scon, T_Scon_DGRG,441, hit,2,0
1009,8, T_Scon, T_Scon_DGRG,364.5, hit,2,0
1010,8, T_Scon, T_Scon_URLR,319.9, hit,1,0
1011,8, T_Sinc, T_Sinc_DRLR,307.4, incorrect,2,1
1012,8, T_Scon, T_Scon_URLR,334.7, hit,1,0
1013,8, T_Scon, T_Scon_URLR,282.2, hit,1,0
1014,8, T_Sinc, T_Sinc_DRLR,325.7, hit,1,0
1015,8, T_Scon, T_Scon_DGRG,369.2, hit,2,0
1016,8, T_Scon, T_Scon_URLR,548.5, hit,1,0
1017,8, T_Sinc, T_Sinc_DRLR,368, hit,1,0
1018,8, T_Scon, T_Scon_DGRG,571.4, hit,2,0
1019,8, T_Sinc, T_Sinc_UGRG,439, hit,2,0
1020,8, T_Scon, T_Scon_DGRG,482.4, hit,2,0
1021,8, T_Sinc, T_Sinc_DRLR,345.7, hit,1,0
1022,8, T_Sinc, T_Sinc_UGRG,525.2, hit,2,0
1023,8, T_Scon, T_Scon_URLR,468.6, hit,1,0
1024,8, T_Scon, T_Scon_URLR,288, hit,1,0
1025,8, T_Scon, T_Scon_URLR,303.5, hit,1,0
1026,8, T_Scon, T_Scon_DGRG,403, hit,2,0
1027,8, T_Scon, T_Scon_URLR,334.4, hit,1,0
1028,8, T_Sinc, T_Sinc_UGRG,429.8, hit,2,0
1029,8, T_Scon, T_Scon_DGRG,489.3, hit,2,0
1030,8, T_Scon, T_Scon_URLR,492.7, hit,1,0
1031,8, T_Scon, T_Scon_URLR,304.2, hit,1,0
1032,8, T_Scon, T_Scon_DGRG,631.6, hit,2,0
1033,8, T_Scon, T_Scon_DGRG,347, hit,2,0
1034,8, T_Sinc, T_Sinc_UGRG,318.5, hit,2,0
1035,8, T_Scon, T_Scon_DGRG,273.9, hit,2,0
1036,8, T_Scon, T_Scon_URLR,425.3, hit,1,0
1037,8, T_Scon, T_Scon_URLR,276.8, hit,1,0
1038,8, T_Scon, T_Scon_URLR,252.2, hit,1,0
1039,8, T_Scon, T_Scon_URLR,235.7, hit,1,0
1040,8, T_Sinc, T_Sinc_DRLR,383.2, hit,1,0
1041,8, T_Scon, T_Scon_DGRG,310.3, hit,2,0
1042,8, T_Scon, T_Scon_URLR,257.7, hit,1,0
1043,8, T_Scon, T_Scon_URLR,349.2, hit,1,0
1044,8, T_Scon, T_Scon_DGRG,528.5, hit,2,0
1045,8, T_Scon, T_Scon_URLR,324, hit,1,0
1046,8, T_Scon, T_Scon_DGRG,423.5, hit,2,0
1047,8, T_Sinc, T_Sinc_UGRG,290.8, incorrect,1,1
1048,8, T_Sinc, T_Sinc_DRLR,422.3, hit,1,0
1049,8, T_Scon, T_Scon_DGRG,425.8, hit,2,0
1050,8, T_Scon, T_Scon_DGRG,437.1, hit,2,0
1051,8, T_Scon, T_Scon_URLR,304.6, hit,1,0
1052,8, T_Scon, T_Scon_DGRG,324.1, hit,2,0
1053,8, T_Scon, T_Scon_URLR,535.5, hit,1,0
1054,8, T_Scon, T_Scon_URLR,574.9, hit,1,0
1055,8, T_Scon, T_Scon_URLR,294.4, hit,1,0
1056,8, T_Scon, T_Scon_URLR,289.8, hit,1,0
1057,8, T_Scon, T_Scon_URLR,285.2, hit,1,0
1058,8, T_Scon, T_Scon_DGRG,136.7, incorrect,1,1
1059,8, T_Scon, T_Scon_URLR,456.1, hit,1,0
1060,8, T_Scon, T_Scon_DGRG,339.6, hit,2,0
1061,8, T_Scon, T_Scon_DGRG,319, hit,2,0
1062,8, T_Sinc, T_Sinc_UGRG,370.4, incorrect,1,1
1063,8, T_Scon, T_Scon_URLR,305.9, hit,1,0
1064,8, T_Scon, T_Scon_DGRG,357.3, hit,2,0
1065,8, T_Scon, T_Scon_DGRG,492.7, hit,2,0
1066,8, T_Sinc, T_Sinc_UGRG,472.2, hit,2,0
1067,8, T_Scon, T_Scon_DGRG,287.6, hit,2,0
1068,8, T_Scon, T_Scon_URLR,487.1, hit,1,0
1069,8, T_Scon, T_Scon_DGRG,394.5, hit,2,0
1070,8, T_Scon, T_Scon_DGRG,457.9, hit,2,0
1071,8, T_Scon, T_Scon_DGRG,277.4, hit,2,0
1072,8, T_Sinc, T_Sinc_UGRG,348.9, hit,2,0
1073,8, T_Scon, T_Scon_URLR,400.2, hit,1,0
1074,8, T_Scon, T_Scon_DGRG,271.7, hit,2,0
1075,8, T_Scon, T_Scon_DGRG,299.1, hit,2,0
1076,8, T_Scon, T_Scon_DGRG,306.6, hit,2,0
1077,8, T_Scon, T_Scon_URLR,333.8, hit,1,0
1078,8, T_Scon, T_Scon_URLR,349.2, hit,1,0
1079,8, T_Scon, T_Scon_URLR,300.5, hit,1,0
1080,8, T_Scon, T_Scon_DGRG,344, hit,2,0
1081,8, T_Sinc, T_Sinc_DRLR,323.5, incorrect,2,1
1082,8, T_Scon, T_Scon_DGRG,478.9, hit,2,0
1083,8, T_Sinc, T_Sinc_UGRG,322.3, hit,2,0
1084,8, T_Scon, T_Scon_DGRG,297.8, hit,2,0
1085,8, T_Scon, T_Scon_DGRG,349.2, hit,2,0
1086,8, T_Scon, T_Scon_DGRG,288.7, hit,2,0
1087,8, T_Sinc, T_Sinc_DRLR,384.1, hit,1,0
1088,8, T_Sinc, T_Sinc_UGRG,355.5, hit,2,0
1089,8, T_Scon, T_Scon_DGRG,335, hit,2,0
1090,8, T_Scon, T_Scon_URLR,346.4, hit,1,0
1091,8, T_Sinc, T_Sinc_UGRG,457.8, hit,2,0
1092,8, T_Scon, T_Scon_DGRG,389.3, hit,2,0
1093,8, T_Scon, T_Scon_URLR,480.8, hit,1,0
1094,8, T_Scon, T_Scon_DGRG,360.1, hit,2,0
1095,8, T_Scon, T_Scon_DGRG,399.6, hit,2,0
1096,8, T_Sinc, T_Sinc_DRLR,367, hit,1,0
1097,8, T_Scon, T_Scon_DGRG,342.5, hit,2,0
1098,8, T_Scon, T_Scon_URLR,337.9, hit,1,0
1099,8, T_Scon, T_Scon_DGRG,441.3, hit,2,0
1100,8, T_Sinc, T_Sinc_UGRG,516.8, hit,2,0
1101,8, T_Sinc, T_Sinc_DRLR,368.3, hit,1,0
1102,8, T_Sinc, T_Sinc_DRLR,491.6, hit,1,0
1103,8, T_Scon, T_Scon_URLR,275.1, hit,1,0
1104,8, T_Scon, T_Scon_URLR,434.5, hit,1,0
1105,8, T_Sinc, T_Sinc_UGRG,437.9, hit,2,0
1106,8, T_Scon, T_Scon_URLR,557.4, hit,1,0
1107,8, T_Sinc, T_Sinc_UGRG,392.8, hit,2,0
1108,8, T_Sinc, T_Sinc_DRLR,396.3, hit,1,0
1109,8, T_Scon, T_Scon_DGRG,439.7, hit,2,0
1110,8, T_Scon, T_Scon_DGRG,399.1, hit,2,0
1111,8, T_Scon, T_Scon_URLR,402.6, hit,1,0
1112,8, T_Scon, T_Scon_URLR,370.1, incorrect,2,1
1113,8, T_Sinc, T_Sinc_DRLR,565.2, hit,1,0
1114,8, T_Scon, T_Scon_DGRG,376.6, hit,2,0
1115,8, T_Scon, T_Scon_URLR,356.1, hit,1,0
1116,8, T_Scon, T_Scon_URLR,259.5, hit,1,0
1117,8, T_Scon, T_Scon_DGRG,354.9, hit,2,0
1118,8, T_Scon, T_Scon_DGRG,354.4, hit,2,0
1119,8, T_Scon, T_Scon_URLR,273.9, hit,1,0
1120,8, T_Scon, T_Scon_URLR,317.2, hit,1,0
1121,8, T_Sinc, T_Sinc_DRLR,264.7, hit,1,0
1122,8, T_Scon, T_Scon_DGRG,500.1, hit,2,0
1123,8, T_Scon, T_Scon_URLR,327.6, hit,1,0
1124,8, T_Sinc, T_Sinc_UGRG,567, hit,2,0
1125,8, T_Scon, T_Scon_DGRG,350.4, hit,2,0
1126,8, T_Scon, T_Scon_DGRG,309.9, hit,2,0
1127,8, T_Scon, T_Scon_URLR,337.4, hit,1,0
1128,8, T_Scon, T_Scon_URLR,260.7, hit,1,0
1129,8, T_Scon, T_Scon_URLR,256.2, hit,1,0
1130,8, T_Scon, T_Scon_URLR,327.7, hit,1,0
1131,8, T_Scon, T_Scon_URLR,371.1, hit,1,0
1132,8, T_Scon, T_Scon_DGRG,614.5, hit,2,0
1133,8, T_Sinc, T_Sinc_UGRG,438, hit,2,0
1134,8, T_Scon, T_Scon_URLR,401.4, hit,1,0
1135,8, T_Scon, T_Scon_URLR,332.9, hit,1,0
1136,8, T_Scon, T_Scon_URLR,256.2, hit,1,0
1137,8, T_Scon, T_Scon_DGRG,611.7, hit,2,0
1138,8, T_Scon, T_Scon_DGRG,295.2, hit,2,0
1139,8, T_Scon, T_Scon_DGRG,322.6, hit,2,0
1140,8, T_Scon, T_Scon_URLR,398, hit,1,0
1141,8, T_Scon, T_Scon_DGRG,345.5, hit,2,0
1142,8, T_Sinc, T_Sinc_UGRG,548.9, hit,2,0
1143,8, T_Scon, T_Scon_DGRG,388.4, hit,2,0
1144,8, T_Scon, T_Scon_URLR,503.7, hit,1,0
1145,8, T_Sinc, T_Sinc_UGRG,443.2, hit,2,0
1146,8, T_Sinc, T_Sinc_DRLR,502.7, hit,1,0
1147,8, T_Sinc, T_Sinc_DRLR,322, hit,1,0
1148,8, T_Scon, T_Scon_URLR,349.5, hit,1,0
1149,9, T_Scon, T_Scon_DGRG,472.1, hit,2,0
1150,9, T_Scon, T_Scon_DGRG,275.6, hit,2,0
1151,9, T_Scon, T_Scon_DGRG,259, hit,2,0
1152,9, T_Sinc, T_Sinc_DRLR,406.4, hit,1,0
1153,9, T_Scon, T_Scon_DGRG,393.9, hit,2,0
1154,9, T_Scon, T_Scon_DGRG,421.3, hit,2,0
1155,9, T_Sinc, T_Sinc_DRLR,328.7, hit,1,0
1156,9, T_Scon, T_Scon_URLR,524.2, hit,1,0
1157,9, T_Scon, T_Scon_DGRG,379.6, hit,2,0
1158,9, T_Scon, T_Scon_URLR,543.1, hit,1,0
1159,9, T_Scon, T_Scon_DGRG,682.4, hit,2,2
1160,9, T_Sinc, T_Sinc_DRLR,365.9, incorrect,2,1
1161,9, T_Scon, T_Scon_URLR,385.4, hit,1,0
1162,9, T_Scon, T_Scon_DGRG,468.8, hit,2,0
1163,9, T_Scon, T_Scon_URLR,392.2, hit,1,0
1164,9, T_Scon, T_Scon_DGRG,411.7, hit,2,0
1165,9, T_Sinc, T_Sinc_DRLR,335.1, hit,1,0
1166,9, T_Scon, T_Scon_DGRG,462.6, hit,2,0
1167,9, T_Scon, T_Scon_URLR,418, hit,1,0
1168,9, T_Sinc, T_Sinc_UGRG,689.4, hit,2,2
1169,9, T_Scon, T_Scon_URLR,644.9, hit,1,0
1170,9, T_Scon, T_Scon_DGRG,492.3, hit,2,0
1171,9, T_Scon, T_Scon_DGRG,515.7, hit,2,0
1172,9, T_Scon, T_Scon_DGRG,419.2, hit,2,0
1173,9, T_Scon, T_Scon_DGRG,390.6, hit,2,0
1174,9, T_Scon, T_Scon_DGRG,378.1, hit,2,0
1175,9, T_Scon, T_Scon_DGRG,349.5, hit,2,0
1176,9, T_Sinc, T_Sinc_DRLR,396.9, hit,1,0
1177,9, T_Scon, T_Scon_DGRG,376.4, hit,2,0
1178,9, T_Scon, T_Scon_URLR,315.9, hit,1,0
1179,9, T_Sinc, T_Sinc_DRLR,319.2, hit,1,0
1180,9, T_Scon, T_Scon_DGRG,398.7, hit,2,0
1181,9, T_Scon, T_Scon_DGRG,338.2, hit,2,0
1182,9, T_Scon, T_Scon_DGRG,345.5, hit,2,0
1183,9, T_Scon, T_Scon_URLR,609, hit,1,0
1184,9, T_Scon, T_Scon_URLR,308.5, hit,1,0
1185,9, T_Scon, T_Scon_DGRG,439.6, hit,2,0
1186,9, T_Sinc, T_Sinc_UGRG,351, hit,2,0
1187,9, T_Scon, T_Scon_URLR,410.5, hit,1,0
1188,9, T_Sinc, T_Sinc_DRLR,313.9, hit,1,0
1189,9, T_Scon, T_Scon_URLR,261.3, hit,1,0
1190,9, T_Sinc, T_Sinc_UGRG,368.8, hit,2,0
1191,9, T_Scon, T_Scon_DGRG,340.2, hit,2,0
1192,9, T_Scon, T_Scon_DGRG,291.6, hit,2,0
1193,9, T_Scon, T_Scon_URLR,447.1, hit,1,0
1194,9, T_Scon, T_Scon_URLR,290.5, hit,1,0
1195,9, T_Scon, T_Scon_DGRG,390, hit,2,0
1196,9, T_Sinc, T_Sinc_UGRG,473.4, hit,2,0
1197,9, T_Scon, T_Scon_URLR,444.8, hit,1,0
1198,9, T_Scon, T_Scon_URLR,580.3, hit,1,0
1199,9, T_Sinc, T_Sinc_UGRG,435.8, hit,2,0
1200,9, T_Scon, T_Scon_DGRG,551.1, hit,2,0
1201,9, T_Scon, T_Scon_URLR,354.6, hit,1,0
1202,9, T_Scon, T_Scon_DGRG,606, hit,2,0
1203,9, T_Scon, T_Scon_DGRG,381.4, hit,2,0
1204,9, T_Sinc, T_Sinc_UGRG,436.9, hit,2,0
1205,9, T_Scon, T_Scon_URLR,424.3, hit,1,0
1206,9, T_Sinc, T_Sinc_DRLR,399.8, hit,1,0
1207,9, T_Scon, T_Scon_URLR,283.2, hit,1,0
1208,9, T_Sinc, T_Sinc_UGRG,382.6, hit,2,0
1209,9, T_Scon, T_Scon_URLR,258.1, hit,1,0
1210,9, T_Scon, T_Scon_URLR,357.6, hit,1,0
1211,9, T_Scon, T_Scon_DGRG,556.9, hit,2,0
1212,9, T_Scon, T_Scon_URLR,352.4, hit,1,0
1213,9, T_Scon, T_Scon_DGRG,519.9, hit,2,0
1214,9, T_Scon, T_Scon_DGRG,495.2, hit,2,0
1215,9, T_Scon, T_Scon_URLR,506.7, hit,1,0
1216,9, T_Scon, T_Scon_URLR,294.2, hit,1,0
1217,9, T_Scon, T_Scon_DGRG,381.6, hit,2,0
1218,9, T_Scon, T_Scon_URLR,453, hit,1,0
1219,9, T_Scon, T_Scon_DGRG,280.4, hit,2,0
1220,9, T_Scon, T_Scon_URLR,371.9, hit,1,0
1221,9, T_Sinc, T_Sinc_DRLR,395.2, hit,1,0
1222,9, T_Scon, T_Scon_URLR,262.5, hit,1,0
1223,9, T_Sinc, T_Sinc_UGRG,577.9, hit,2,0
1224,9, T_Scon, T_Scon_URLR,469.4, hit,1,0
1225,9, T_Scon, T_Scon_DGRG,664.8, hit,2,2
1226,9, T_Scon, T_Scon_DGRG,364.2, hit,2,0
1227,9, T_Sinc, T_Sinc_DRLR,631.7, hit,1,0
1228,9, T_Scon, T_Scon_URLR,395.1, hit,1,0
1229,9, T_Scon, T_Scon_DGRG,358.5, hit,2,0
1230,9, T_Sinc, T_Sinc_DRLR,450, hit,1,0
1231,9, T_Scon, T_Scon_DGRG,397.5, hit,2,0
1232,9, T_Scon, T_Scon_DGRG,336.8, hit,2,0
1233,9, T_Sinc, T_Sinc_UGRG,316.3, hit,2,0
1234,9, T_Sinc, T_Sinc_UGRG,279.8, hit,2,0
1235,9, T_Sinc, T_Sinc_UGRG,307.2, hit,2,0
1236,9, T_Scon, T_Scon_URLR,382.6, hit,1,0
1237,9, T_Scon, T_Scon_URLR,486, hit,1,0
1238,9, T_Scon, T_Scon_URLR,237.5, hit,1,0
1239,9, T_Scon, T_Scon_URLR,213, hit,1,0
1240,9, T_Scon, T_Scon_DGRG,404.3, hit,2,0
1241,9, T_Scon, T_Scon_URLR,391.8, hit,1,0
1242,9, T_Scon, T_Scon_URLR,271.3, hit,1,0
1243,9, T_Scon, T_Scon_URLR,294.7, hit,1,0
1244,9, T_Sinc, T_Sinc_DRLR,298.1, hit,1,0
1245,9, T_Scon, T_Scon_URLR,245.6, hit,1,0
1246,9, T_Scon, T_Scon_DGRG,401, hit,2,0
1247,9, T_Sinc, T_Sinc_UGRG,512.5, hit,2,0
1248,9, T_Scon, T_Scon_URLR,331.8, hit,1,0
1249,9, T_Sinc, T_Sinc_UGRG,387.3, hit,2,0
1250,9, T_Scon, T_Scon_DGRG,374.8, hit,2,0
1251,9, T_Scon, T_Scon_DGRG,298.1, hit,2,0
1252,9, T_Scon, T_Scon_DGRG,301.6, hit,2,0
1253,9, T_Scon, T_Scon_URLR,465.1, hit,1,0
1254,9, T_Scon, T_Scon_URLR,324.5, hit,1,0
1255,9, T_Scon, T_Scon_URLR,272, hit,1,0
1256,9, T_Scon, T_Scon_URLR,247.4, hit,1,0
1257,9, T_Scon, T_Scon_URLR,354.6, hit,1,0
1258,9, T_Sinc, T_Sinc_DRLR,453.9, hit,1,0
1259,9, T_Scon, T_Scon_DGRG,609.4, hit,2,0
1260,9, T_Sinc, T_Sinc_DRLR,560.9, hit,1,0
1261,9, T_Sinc, T_Sinc_DRLR,268.3, hit,1,0
1262,9, T_Scon, T_Scon_URLR,299.8, hit,1,0
1263,9, T_Scon, T_Scon_URLR,279.2, hit,1,0
1264,9, T_Scon, T_Scon_URLR,238.6, hit,1,0
1265,9, T_Scon, T_Scon_URLR,234.1, hit,1,0
1266,9, T_Scon, T_Scon_URLR,289.6, hit,1,0
1267,9, T_Sinc, T_Sinc_UGRG,556.9, hit,2,0
1268,9, T_Scon, T_Scon_DGRG,508.4, hit,2,0
1269,9, T_Scon, T_Scon_DGRG,291.8, hit,2,0
1270,9, T_Scon, T_Scon_DGRG,287.3, hit,2,0
1271,9, T_Scon, T_Scon_DGRG,570.7, hit,2,0
1272,9, T_Scon, T_Scon_DGRG,534.1, hit,2,0
1273,9, T_Scon, T_Scon_URLR,377.6, hit,1,0
1274,9, T_Sinc, T_Sinc_UGRG,473, hit,2,0
1275,9, T_Scon, T_Scon_URLR,456.4, hit,1,0
1276,9, T_Scon, T_Scon_URLR,291.9, hit,1,0
1277,9, T_Scon, T_Scon_DGRG,507.2, hit,2,0
1278,9, T_Sinc, T_Sinc_UGRG,310.7, hit,2,0
1279,9, T_Scon, T_Scon_URLR,370.2, hit,1,0
1280,9, T_Sinc, T_Sinc_UGRG,317.6, incorrect,1,1
1281,9, T_Scon, T_Scon_URLR,401, hit,1,0
1282,9, T_Sinc, T_Sinc_DRLR,612.5, hit,1,0
1283,9, T_Scon, T_Scon_DGRG,395.9, hit,2,0
1284,9, T_Sinc, T_Sinc_DRLR,491.4, hit,1,0
1285,9, T_Scon, T_Scon_DGRG,350.9, hit,2,0
1286,9, T_Scon, T_Scon_URLR,386.2, hit,1,0
1287,9, T_Sinc, T_Sinc_DRLR,357.7, hit,1,0
1288,9, T_Scon, T_Scon_DGRG,529.1, hit,2,0
1289,9, T_Scon, T_Scon_URLR,404.6, hit,1,0
1290,9, T_Scon, T_Scon_DGRG,480, hit,2,0
1291,9, T_Sinc, T_Sinc_UGRG,495.4, hit,2,0
1292,9, T_Scon, T_Scon_DGRG,378.9, hit,2,0
