trial_index, block, condition, full_condition_code, RT, response_type, response_key, error_outlier
1, 1, T_Scon, T_Scon_DGRG, 552.3, hit, 2, 0
2, 1, T_Sinc, T_Sinc_UGRG, 267.7, incorrect, 1, 1
3, 1, T_Scon, T_Scon_URLR, 227.1, hit, 1, 0
4, 1, T_Scon, T_Scon_DGRG, 302.5, incorrect, 1, 1
5, 1, T_Scon, T_Scon_DGRG, 370.1, hit, 2, 0
6, 1, T_Sinc, T_Sinc_UGRG, 329.4, hit, 2, 0
7, 1, T_Sinc, T_Sinc_UGRG, 284.9, hit, 2, 0
8, 1, T_Scon, T_Scon_URLR, 244.3, hit, 1, 0
9, 1, T_Scon, T_Scon_DGRG, 295.7, hit, 2, 0
10, 1, T_Sinc, T_Sinc_DRLR, 291.2, incorrect, 2, 1
11, 1, T_Scon, T_Scon_URLR, 262.6, hit, 1, 0
12, 1, T_Scon, T_Scon_URLR, 318.1, hit, 1, 0
13, 1, T_Sinc, T_Sinc_DRLR, 313.4, hit, 1, 0
14, 1, T_Sinc, T_Sinc_UGRG, 344.9, hit, 2, 0
15, 1, T_Scon, T_Scon_DGRG, 264.4, hit, 2, 0
16, 1, T_Scon, T_Scon_DGRG, 303.8, hit, 2, 0
17, 1, T_Scon, T_Scon_URLR, 255.2, hit, 1, 0
18, 1, T_Sinc, T_Sinc_DRLR, 322.7, hit, 1, 0
19, 1, T_Sinc, T_Sinc_UGRG, 374.1, hit, 2, 0
20, 1, T_Sinc, T_Sinc_UGRG, 329.6, hit, 2, 0
21, 1, T_Scon, T_Scon_DGRG, 325.0, hit, 2, 0
22, 1, T_Scon, T_Scon_URLR, 288.4, hit, 1, 0
23, 1, T_Sinc, T_Sinc_UGRG, 339.9, hit, 2, 0
24, 1, T_Scon, T_Scon_DGRG, 359.3, hit, 2, 0
25, 1, T_Sinc, T_Sinc_DRLR, 358.7, hit, 1, 0
26, 1, T_Scon, T_Scon_DGRG, 402.2, hit, 2, 0
27, 1, T_Scon, T_Scon_URLR, 341.7, hit, 1, 0
28, 1, T_Scon, T_Scon_URLR, 313.0, hit, 1, 0
29, 1, T_Scon, T_Scon_URLR, 300.5, hit, 1, 0
30, 1, T_Scon, T_Scon_URLR, 351.9, hit, 1, 0
31, 1, T_Scon, T_Scon_URLR, 339.3, hit, 1, 0
32, 1, T_Sinc, T_Sinc_UGRG, 294.8, incorrect, 1, 1
33, 1, T_Scon, T_Scon_DGRG, 346.2, hit, 2, 0
34, 1, T_Sinc, T_Sinc_DRLR, 365.7, hit, 1, 0
35, 1, T_Scon, T_Scon_URLR, 357.1, hit, 1, 0
36, 1, T_Sinc, T_Sinc_UGRG, 400.5, hit, 2, 0
37, 1, T_Scon, T_Scon_URLR, 375.8, hit, 1, 0
38, 1, T_Sinc, T_Sinc_UGRG, 339.1, hit, 2, 0
39, 1, T_Scon, T_Scon_URLR, 310.6, hit, 1, 0
40, 1, T_Sinc, T_Sinc_DRLR, 434.0, hit, 1, 0
41, 1, T_Sinc, T_Sinc_DRLR, 349.5, hit, 1, 0
42, 1, T_Sinc, T_Sinc_UGRG, 328.8, hit, 2, 0
43, 1, T_Sinc, T_Sinc_UGRG, 304.3, hit, 2, 0
44, 1, T_Sinc, T_Sinc_DRLR, 307.8, hit, 1, 0
45, 1, T_Sinc, T_Sinc_DRLR, 347.3, hit, 1, 0
46, 1, T_Sinc, T_Sinc_DRLR, 362.7, hit, 1, 0
47, 1, T_Scon, T_Scon_DGRG, 382.1, hit, 2, 0
48, 1, T_Sinc, T_Sinc_UGRG, 401.5, hit, 2, 0
49, 1, T_Scon, T_Scon_DGRG, 329.0, hit, 2, 0
50, 1, T_Scon, T_Scon_URLR, 316.4, hit, 1, 0
51, 1, T_Sinc, T_Sinc_UGRG, 375.8, hit, 2, 0
52, 1, T_Sinc, T_Sinc_DRLR, 351.3, hit, 1, 0
53, 1, T_Scon, T_Scon_URLR, 418.7, hit, 1, 0
54, 1, T_Scon, T_Scon_URLR, 394.1, hit, 1, 0
55, 1, T_Sinc, T_Sinc_UGRG, 653.6, hit, 2, 0
56, 1, T_Sinc, T_Sinc_DRLR, 437.0, hit, 1, 0
57, 1, T_Scon, T_Scon_URLR, 416.4, hit, 1, 0
58, 1, T_Sinc, T_Sinc_UGRG, 499.9, hit, 2, 0
59, 1, T_Sinc, T_Sinc_UGRG, 579.3, hit, 2, 0
60, 1, T_Sinc, T_Sinc_DRLR, 738.8, hit, 1, 0
61, 1, T_Scon, T_Scon_DGRG, 558.2, hit, 2, 0
62, 1, T_Scon, T_Scon_DGRG, 377.6, hit, 2, 0
63, 1, T_Scon, T_Scon_DGRG, 509.1, hit, 2, 0
64, 1, T_Scon, T_Scon_URLR, 368.6, hit, 1, 0
65, 1, T_Scon, T_Scon_DGRG, 355.9, hit, 2, 0
66, 1, T_Sinc, T_Sinc_UGRG, 391.4, hit, 2, 0
67, 1, T_Scon, T_Scon_URLR, 330.9, hit, 1, 0
68, 1, T_Scon, T_Scon_URLR, 502.2, hit, 1, 0
69, 1, T_Scon, T_Scon_DGRG, 285.7, hit, 2, 0
70, 1, T_Sinc, T_Sinc_UGRG, 337.1, hit, 2, 0
71, 1, T_Scon, T_Scon_URLR, 652.6, hit, 1, 0
72, 1, T_Scon, T_Scon_DGRG, 328.0, hit, 2, 0
73, 1, T_Scon, T_Scon_URLR, 471.2, hit, 1, 0
74, 1, T_Scon, T_Scon_DGRG, 346.7, hit, 2, 0
75, 1, T_Sinc, T_Sinc_DRLR, 1286.0, hit, 1, 2
76, 1, T_Sinc, T_Sinc_UGRG, 649.5, hit, 2, 0
77, 1, T_Sinc, T_Sinc_DRLR, 612.9, hit, 1, 0
78, 1, T_Sinc, T_Sinc_DRLR, 396.4, hit, 1, 0
79, 1, T_Sinc, T_Sinc_UGRG, 359.8, hit, 2, 0
80, 1, T_Scon, T_Scon_DGRG, 339.2, hit, 2, 0
81, 1, T_Sinc, T_Sinc_DRLR, 306.7, hit, 1, 0
82, 1, T_Scon, T_Scon_URLR, 362.0, hit, 1, 0
83, 1, T_Sinc, T_Sinc_UGRG, 325.5, hit, 2, 0
84, 1, T_Sinc, T_Sinc_DRLR, 317.0, hit, 1, 0
85, 1, T_Sinc, T_Sinc_UGRG, 284.5, hit, 2, 0
86, 1, T_Sinc, T_Sinc_DRLR, 335.8, hit, 1, 0
87, 1, T_Scon, T_Scon_DGRG, 263.3, hit, 2, 0
88, 1, T_Sinc, T_Sinc_UGRG, 298.8, hit, 2, 0
89, 1, T_Sinc, T_Sinc_UGRG, 334.1, hit, 2, 0
90, 1, T_Scon, T_Scon_URLR, 361.6, hit, 1, 0
91, 1, T_Scon, T_Scon_URLR, 309.0, hit, 1, 0
92, 1, T_Sinc, T_Sinc_DRLR, 348.5, hit, 1, 0
93, 1, T_Sinc, T_Sinc_UGRG, 455.9, hit, 2, 0
94, 1, T_Sinc, T_Sinc_DRLR, 835.3, hit, 1, 0
95, 1, T_Scon, T_Scon_DGRG, 350.8, hit, 2, 0
96, 1, T_Scon, T_Scon_DGRG, 1190.2, hit, 2, 2
97, 1, T_Sinc, T_Sinc_DRLR, 393.7, hit, 1, 0
98, 1, T_Sinc, T_Sinc_UGRG, 653.1, hit, 2, 0
99, 1, T_Sinc, T_Sinc_DRLR, 392.5, hit, 1, 0
100, 1, T_Scon, T_Scon_DGRG, 852.0, hit, 2, 0
101, 1, T_Scon, T_Scon_URLR, 1255.5, hit, 1, 2
102, 1, T_Sinc, T_Sinc_DRLR, 482.8, hit, 1, 0
103, 1, T_Scon, T_Scon_URLR, 1114.3, hit, 1, 2
104, 1, T_Scon, T_Scon_DGRG, 353.8, hit, 2, 0
105, 1, T_Sinc, T_Sinc_DRLR, 625.2, hit, 1, 0
106, 1, T_Sinc, T_Sinc_UGRG, 324.6, hit, 2, 0
107, 1, T_Scon, T_Scon_DGRG, 360.1, hit, 2, 0
108, 1, T_Scon, T_Scon_DGRG, 303.5, hit, 2, 0
109, 1, T_Scon, T_Scon_DGRG, 0.1, miss, 2885300, 1
110, 1, T_Scon, T_Scon_URLR, 618.1, hit, 1, 0
111, 1, T_Sinc, T_Sinc_UGRG, 1473.5, hit, 2, 2
112, 1, T_Scon, T_Scon_URLR, 820.9, hit, 1, 0
113, 1, T_Scon, T_Scon_DGRG, 324.4, hit, 2, 0
114, 1, T_Scon, T_Scon_DGRG, 275.8, hit, 2, 0
115, 1, T_Scon, T_Scon_URLR, 315.3, hit, 1, 0
116, 1, T_Sinc, T_Sinc_UGRG, 302.7, hit, 2, 0
117, 1, T_Scon, T_Scon_URLR, 286.1, hit, 1, 0
118, 1, T_Scon, T_Scon_URLR, 337.6, hit, 1, 0
119, 1, T_Sinc, T_Sinc_UGRG, 445.1, hit, 2, 0
120, 1, T_Sinc, T_Sinc_DRLR, 480.5, hit, 1, 0
121, 1, T_Scon, T_Scon_DGRG, 339.9, hit, 2, 0
122, 1, T_Scon, T_Scon_URLR, 335.3, hit, 1, 0
123, 1, T_Scon, T_Scon_DGRG, 342.8, hit, 2, 0
124, 1, T_Sinc, T_Sinc_DRLR, 590.2, hit, 1, 0
125, 1, T_Sinc, T_Sinc_DRLR, 513.6, hit, 1, 0
126, 1, T_Scon, T_Scon_URLR, 1461.1, hit, 1, 2
127, 1, T_Sinc, T_Sinc_DRLR, 476.6, hit, 1, 0
128, 1, T_Sinc, T_Sinc_UGRG, 331.9, hit, 2, 0
129, 1, T_Sinc, T_Sinc_UGRG, 295.4, hit, 2, 0
130, 1, T_Sinc, T_Sinc_DRLR, 346.9, hit, 1, 0
131, 1, T_Scon, T_Scon_URLR, 310.2, hit, 1, 0
132, 1, T_Sinc, T_Sinc_DRLR, 365.7, hit, 1, 0
133, 1, T_Sinc, T_Sinc_DRLR, 937.2, hit, 1, 0
134, 1, T_Scon, T_Scon_DGRG, 272.6, hit, 2, 0
135, 1, T_Scon, T_Scon_DGRG, 584.0, hit, 2, 0
136, 1, T_Sinc, T_Sinc_DRLR, 787.5, hit, 1, 0
137, 1, T_Scon, T_Scon_DGRG, 446.9, hit, 2, 0
138, 1, T_Sinc, T_Sinc_DRLR, 0.1, miss, 3470093, 1
139, 1, T_Sinc, T_Sinc_UGRG, 437.8, incorrect, 1, 1
140, 1, T_Sinc, T_Sinc_DRLR, 353.2, hit, 1, 0
141, 1, T_Sinc, T_Sinc_DRLR, 332.7, hit, 1, 0
142, 1, T_Sinc, T_Sinc_UGRG, 344.1, hit, 2, 0
143, 1, T_Scon, T_Scon_DGRG, 339.5, hit, 2, 0
144, 1, T_Sinc, T_Sinc_UGRG, 338.9, hit, 2, 0
145, 2, T_Scon, T_Scon_DGRG, 422.8, hit, 2, 0
146, 2, T_Scon, T_Scon_DGRG, 282.3, hit, 2, 0
147, 2, T_Scon, T_Scon_DGRG, 301.7, hit, 2, 0
148, 2, T_Scon, T_Scon_DGRG, 281.2, hit, 2, 0
149, 2, T_Sinc, T_Sinc_UGRG, 400.6, hit, 2, 0
150, 2, T_Sinc, T_Sinc_UGRG, 360.0, hit, 2, 0
151, 2, T_Sinc, T_Sinc_DRLR, 483.5, hit, 1, 0
152, 2, T_Sinc, T_Sinc_UGRG, 318.9, hit, 2, 0
153, 2, T_Sinc, T_Sinc_UGRG, 254.3, hit, 2, 0
154, 2, T_Scon, T_Scon_DGRG, 237.8, hit, 2, 0
155, 2, T_Scon, T_Scon_URLR, 353.3, hit, 1, 0
156, 2, T_Sinc, T_Sinc_UGRG, 340.7, hit, 2, 0
157, 2, T_Sinc, T_Sinc_DRLR, 376.1, hit, 1, 0
158, 2, T_Sinc, T_Sinc_DRLR, 323.5, hit, 1, 0
159, 2, T_Sinc, T_Sinc_UGRG, 807.0, hit, 2, 0
160, 2, T_Scon, T_Scon_DGRG, 906.4, hit, 2, 2
161, 2, T_Sinc, T_Sinc_DRLR, 1401.8, hit, 1, 2
162, 2, T_Scon, T_Scon_DGRG, 545.3, hit, 2, 0
163, 2, T_Scon, T_Scon_URLR, 0.1, miss, 434303, 1
164, 2, T_Sinc, T_Sinc_UGRG, 676.1, hit, 2, 0
165, 2, T_Scon, T_Scon_DGRG, 0.2, miss, 474634, 1
166, 2, T_Sinc, T_Sinc_UGRG, 651.0, hit, 2, 0
167, 2, T_Sinc, T_Sinc_DRLR, 310.5, hit, 1, 0
168, 2, T_Scon, T_Scon_URLR, 457.9, hit, 1, 0
169, 2, T_Scon, T_Scon_URLR, 329.3, hit, 1, 0
170, 2, T_Scon, T_Scon_URLR, 332.8, hit, 1, 0
171, 2, T_Scon, T_Scon_URLR, 296.2, hit, 1, 0
172, 2, T_Sinc, T_Sinc_UGRG, 339.6, hit, 2, 0
173, 2, T_Sinc, T_Sinc_UGRG, 287.1, hit, 2, 0
174, 2, T_Scon, T_Scon_DGRG, 346.5, hit, 2, 0
175, 2, T_Scon, T_Scon_URLR, 381.9, hit, 1, 0
176, 2, T_Sinc, T_Sinc_UGRG, 281.4, hit, 2, 0
177, 2, T_Sinc, T_Sinc_UGRG, 292.9, hit, 2, 0
178, 2, T_Scon, T_Scon_URLR, 392.3, hit, 1, 0
179, 2, T_Scon, T_Scon_DGRG, 287.8, hit, 2, 0
180, 2, T_Scon, T_Scon_URLR, 431.1, hit, 1, 0
181, 2, T_Scon, T_Scon_DGRG, 0.2, miss, 1001597, 1
182, 2, T_Scon, T_Scon_URLR, 0.1, miss, 1021763, 1
183, 2, T_Scon, T_Scon_DGRG, 0.1, miss, 1040928, 1
184, 2, T_Scon, T_Scon_DGRG, 68.7, hit, 2, 0
185, 2, T_Sinc, T_Sinc_DRLR, 436.0, hit, 1, 0
186, 2, T_Sinc, T_Sinc_UGRG, 687.5, hit, 2, 0
187, 2, T_Sinc, T_Sinc_UGRG, 330.9, hit, 2, 0
188, 2, T_Sinc, T_Sinc_UGRG, 234.4, hit, 2, 0
189, 2, T_Scon, T_Scon_DGRG, 297.8, hit, 2, 0
190, 2, T_Scon, T_Scon_DGRG, 349.2, hit, 2, 0
191, 2, T_Scon, T_Scon_DGRG, 260.7, hit, 2, 0
192, 2, T_Scon, T_Scon_URLR, 240.1, hit, 1, 0
193, 2, T_Sinc, T_Sinc_DRLR, 275.5, hit, 1, 0
194, 2, T_Scon, T_Scon_URLR, 379.0, hit, 1, 0
195, 2, T_Scon, T_Scon_URLR, 262.5, hit, 1, 0
196, 2, T_Scon, T_Scon_DGRG, 305.8, hit, 2, 0
197, 2, T_Scon, T_Scon_URLR, 245.3, hit, 1, 0
198, 2, T_Sinc, T_Sinc_UGRG, 332.7, hit, 2, 0
199, 2, T_Sinc, T_Sinc_DRLR, 0.1, miss, 1362572, 1
200, 2, T_Sinc, T_Sinc_DRLR, 319.6, incorrect, 2, 1
201, 2, T_Sinc, T_Sinc_DRLR, 347.0, hit, 1, 0
202, 2, T_Sinc, T_Sinc_DRLR, 326.5, hit, 1, 0
203, 2, T_Sinc, T_Sinc_DRLR, 290.0, hit, 1, 0
204, 2, T_Scon, T_Scon_DGRG, 345.4, hit, 2, 0
205, 2, T_Scon, T_Scon_DGRG, 348.8, hit, 2, 0
206, 2, T_Sinc, T_Sinc_DRLR, 1272.2, hit, 1, 2
207, 2, T_Sinc, T_Sinc_DRLR, 0.2, miss, 1523894, 1
208, 2, T_Scon, T_Scon_URLR, 0.1, miss, 1543060, 1
209, 2, T_Scon, T_Scon_URLR, 918.5, hit, 1, 2
210, 2, T_Sinc, T_Sinc_UGRG, 0.1, miss, 1583390, 1
211, 2, T_Scon, T_Scon_URLR, 0.1, miss, 1604556, 1
212, 2, T_Scon, T_Scon_DGRG, 0.2, miss, 1624721, 1
213, 2, T_Scon, T_Scon_URLR, 280.3, incorrect, 2, 1
214, 2, T_Scon, T_Scon_DGRG, 387.8, hit, 2, 0
215, 2, T_Scon, T_Scon_DGRG, 291.2, hit, 2, 0
216, 2, T_Sinc, T_Sinc_UGRG, 318.6, hit, 2, 0
217, 2, T_Scon, T_Scon_DGRG, 369.8, hit, 2, 0
218, 2, T_Sinc, T_Sinc_DRLR, 329.2, hit, 1, 0
219, 2, T_Scon, T_Scon_URLR, 424.6, hit, 1, 0
220, 2, T_Scon, T_Scon_DGRG, 356.1, hit, 2, 0
221, 2, T_Scon, T_Scon_URLR, 319.6, hit, 1, 0
222, 2, T_Sinc, T_Sinc_DRLR, 462.9, hit, 1, 0
223, 2, T_Scon, T_Scon_DGRG, 262.4, hit, 2, 0
224, 2, T_Sinc, T_Sinc_UGRG, 293.8, incorrect, 1, 1
225, 2, T_Scon, T_Scon_DGRG, 249.2, hit, 2, 0
226, 2, T_Sinc, T_Sinc_UGRG, 284.7, hit, 2, 0
227, 2, T_Scon, T_Scon_URLR, 336.1, hit, 1, 0
228, 2, T_Scon, T_Scon_URLR, 339.6, hit, 1, 0
229, 2, T_Scon, T_Scon_URLR, 403.0, hit, 1, 0
230, 2, T_Scon, T_Scon_DGRG, 366.4, hit, 2, 0
231, 2, T_Sinc, T_Sinc_DRLR, 737.9, hit, 1, 0
232, 2, T_Scon, T_Scon_DGRG, 989.4, hit, 2, 2
233, 2, T_Scon, T_Scon_DGRG, 396.7, hit, 2, 0
234, 2, T_Sinc, T_Sinc_DRLR, 408.2, hit, 1, 0
235, 2, T_Scon, T_Scon_DGRG, 527.6, hit, 2, 0
236, 2, T_Sinc, T_Sinc_DRLR, 1531.1, hit, 1, 2
237, 2, T_Scon, T_Scon_URLR, 518.5, hit, 1, 0
238, 2, T_Sinc, T_Sinc_UGRG, 425.9, hit, 2, 0
239, 2, T_Sinc, T_Sinc_DRLR, 0.1, miss, 2373502, 1
240, 2, T_Sinc, T_Sinc_UGRG, 280.9, incorrect, 1, 1
241, 2, T_Sinc, T_Sinc_UGRG, 452.2, hit, 2, 0
242, 2, T_Sinc, T_Sinc_UGRG, 331.7, hit, 2, 0
243, 2, T_Scon, T_Scon_DGRG, 335.2, hit, 2, 0
244, 2, T_Sinc, T_Sinc_DRLR, 346.6, hit, 1, 0
245, 2, T_Sinc, T_Sinc_DRLR, 338.0, incorrect, 2, 1
246, 2, T_Scon, T_Scon_URLR, 365.5, hit, 1, 0
247, 2, T_Scon, T_Scon_URLR, 392.9, hit, 1, 0
248, 2, T_Scon, T_Scon_DGRG, 364.3, hit, 2, 0
249, 2, T_Scon, T_Scon_DGRG, 323.8, hit, 2, 0
250, 2, T_Scon, T_Scon_URLR, 343.2, hit, 1, 0
251, 2, T_Sinc, T_Sinc_UGRG, 402.7, hit, 2, 0
252, 2, T_Sinc, T_Sinc_DRLR, 0.1, miss, 2638651, 1
253, 2, T_Sinc, T_Sinc_DRLR, 461.3, hit, 1, 0
254, 2, T_Sinc, T_Sinc_DRLR, 308.7, hit, 1, 0
255, 2, T_Sinc, T_Sinc_UGRG, 372.1, hit, 2, 0
256, 2, T_Sinc, T_Sinc_UGRG, 335.5, hit, 2, 0
257, 2, T_Scon, T_Scon_URLR, 363.0, hit, 1, 0
258, 2, T_Sinc, T_Sinc_DRLR, 410.5, hit, 1, 0
259, 2, T_Scon, T_Scon_DGRG, 349.8, hit, 2, 0
260, 2, T_Sinc, T_Sinc_DRLR, 353.3, hit, 1, 0
261, 2, T_Sinc, T_Sinc_DRLR, 336.8, hit, 1, 0
262, 2, T_Scon, T_Scon_URLR, 356.1, hit, 1, 0
263, 2, T_Scon, T_Scon_DGRG, 499.6, hit, 2, 0
264, 2, T_Sinc, T_Sinc_UGRG, 531.0, hit, 2, 0
265, 2, T_Sinc, T_Sinc_UGRG, 430.5, hit, 2, 0
266, 2, T_Scon, T_Scon_URLR, 345.9, hit, 1, 0
267, 2, T_Sinc, T_Sinc_DRLR, 421.3, hit, 1, 0
268, 2, T_Sinc, T_Sinc_UGRG, 328.8, hit, 2, 0
269, 2, T_Scon, T_Scon_DGRG, 380.2, hit, 2, 0
270, 2, T_Scon, T_Scon_URLR, 299.6, hit, 1, 0
271, 2, T_Sinc, T_Sinc_DRLR, 359.1, hit, 1, 0
272, 2, T_Sinc, T_Sinc_UGRG, 410.6, hit, 2, 0
273, 2, T_Sinc, T_Sinc_UGRG, 317.9, hit, 2, 0
274, 2, T_Scon, T_Scon_URLR, 361.4, hit, 1, 0
275, 2, T_Sinc, T_Sinc_UGRG, 0.1, miss, 3302771, 1
276, 2, T_Scon, T_Scon_URLR, 0.2, miss, 3322936, 1
277, 2, T_Sinc, T_Sinc_DRLR, 491.7, hit, 1, 0
278, 2, T_Scon, T_Scon_URLR, 415.2, hit, 1, 0
279, 2, T_Sinc, T_Sinc_UGRG, 230.6, hit, 2, 0
280, 2, T_Scon, T_Scon_URLR, 330.0, hit, 1, 0
281, 2, T_Sinc, T_Sinc_DRLR, 365.5, hit, 1, 0
282, 2, T_Sinc, T_Sinc_UGRG, 912.9, incorrect, 1, 1
283, 2, T_Sinc, T_Sinc_DRLR, 328.4, incorrect, 2, 1
284, 2, T_Sinc, T_Sinc_DRLR, 355.7, hit, 1, 0
285, 2, T_Sinc, T_Sinc_DRLR, 327.2, hit, 1, 0
286, 2, T_Scon, T_Scon_URLR, 310.7, hit, 1, 0
287, 2, T_Sinc, T_Sinc_UGRG, 354.1, hit, 2, 0
288, 2, T_Sinc, T_Sinc_DRLR, 421.5, hit, 1, 0
289, 3, T_Sinc, T_Sinc_UGRG, 358.7, hit, 2, 0
290, 3, T_Scon, T_Scon_URLR, 286.2, hit, 1, 0
291, 3, T_Scon, T_Scon_DGRG, 377.6, hit, 2, 0
292, 3, T_Scon, T_Scon_URLR, 325.0, hit, 1, 0
293, 3, T_Scon, T_Scon_DGRG, 392.4, hit, 2, 0
294, 3, T_Sinc, T_Sinc_DRLR, 391.9, hit, 1, 0
295, 3, T_Sinc, T_Sinc_DRLR, 391.3, hit, 1, 0
296, 3, T_Sinc, T_Sinc_DRLR, 306.7, hit, 1, 0
297, 3, T_Scon, T_Scon_DGRG, 358.2, hit, 2, 0
298, 3, T_Scon, T_Scon_DGRG, 449.7, hit, 2, 0
299, 3, T_Sinc, T_Sinc_DRLR, 349.1, hit, 1, 0
300, 3, T_Scon, T_Scon_URLR, 448.5, hit, 1, 0
301, 3, T_Scon, T_Scon_URLR, 359.9, hit, 1, 0
302, 3, T_Sinc, T_Sinc_DRLR, 471.4, hit, 1, 0
303, 3, T_Sinc, T_Sinc_DRLR, 1166.8, hit, 1, 2
304, 3, T_Sinc, T_Sinc_UGRG, 470.2, hit, 2, 0
305, 3, T_Scon, T_Scon_URLR, 1129.7, hit, 1, 2
306, 3, T_Sinc, T_Sinc_UGRG, 377.2, hit, 2, 0
307, 3, T_Scon, T_Scon_URLR, 380.6, hit, 1, 0
308, 3, T_Sinc, T_Sinc_UGRG, 0.1, miss, 468468, 1
309, 3, T_Scon, T_Scon_URLR, 151.5, incorrect, 2, 1
310, 3, T_Scon, T_Scon_URLR, 371.0, hit, 1, 0
311, 3, T_Scon, T_Scon_URLR, 314.4, hit, 1, 0
312, 3, T_Sinc, T_Sinc_UGRG, 381.7, hit, 2, 0
313, 3, T_Sinc, T_Sinc_UGRG, 329.2, hit, 2, 0
314, 3, T_Scon, T_Scon_DGRG, 352.7, hit, 2, 0
315, 3, T_Sinc, T_Sinc_UGRG, 296.1, hit, 2, 0
316, 3, T_Scon, T_Scon_URLR, 283.5, hit, 1, 0
317, 3, T_Scon, T_Scon_URLR, 359.0, incorrect, 2, 1
318, 3, T_Scon, T_Scon_URLR, 310.4, hit, 1, 0
319, 3, T_Sinc, T_Sinc_DRLR, 333.8, hit, 1, 0
320, 3, T_Scon, T_Scon_DGRG, 465.3, hit, 2, 0
321, 3, T_Scon, T_Scon_URLR, 0.1, miss, 732616, 1
322, 3, T_Sinc, T_Sinc_DRLR, 1580.2, hit, 1, 2
323, 3, T_Sinc, T_Sinc_UGRG, 447.5, hit, 2, 0
324, 3, T_Sinc, T_Sinc_DRLR, 371.0, hit, 1, 0
325, 3, T_Sinc, T_Sinc_UGRG, 462.3, hit, 2, 0
326, 3, T_Sinc, T_Sinc_DRLR, 337.6, hit, 1, 0
327, 3, T_Scon, T_Scon_DGRG, 325.0, incorrect, 1, 1
328, 3, T_Scon, T_Scon_DGRG, 352.5, hit, 2, 0
329, 3, T_Sinc, T_Sinc_DRLR, 323.9, hit, 1, 0
330, 3, T_Sinc, T_Sinc_DRLR, 343.3, hit, 1, 0
331, 3, T_Sinc, T_Sinc_DRLR, 406.8, hit, 1, 0
332, 3, T_Sinc, T_Sinc_DRLR, 322.2, hit, 1, 0
333, 3, T_Scon, T_Scon_URLR, 361.6, hit, 1, 0
334, 3, T_Scon, T_Scon_DGRG, 405.1, hit, 2, 0
335, 3, T_Sinc, T_Sinc_DRLR, 360.5, hit, 1, 0
336, 3, T_Sinc, T_Sinc_DRLR, 315.9, hit, 1, 0
337, 3, T_Scon, T_Scon_DGRG, 343.4, hit, 2, 0
338, 3, T_Sinc, T_Sinc_UGRG, 362.8, hit, 2, 0
339, 3, T_Sinc, T_Sinc_UGRG, 334.3, hit, 2, 0
340, 3, T_Sinc, T_Sinc_DRLR, 313.7, hit, 1, 0
341, 3, T_Scon, T_Scon_URLR, 413.2, hit, 1, 0
342, 3, T_Scon, T_Scon_URLR, 308.6, hit, 1, 0
343, 3, T_Scon, T_Scon_URLR, 292.1, hit, 1, 0
344, 3, T_Scon, T_Scon_URLR, 375.4, hit, 1, 0
345, 3, T_Sinc, T_Sinc_DRLR, 474.9, hit, 1, 0
346, 3, T_Sinc, T_Sinc_UGRG, 374.4, hit, 2, 0
347, 3, T_Sinc, T_Sinc_UGRG, 401.7, hit, 2, 0
348, 3, T_Sinc, T_Sinc_DRLR, 357.2, hit, 1, 0
349, 3, T_Sinc, T_Sinc_DRLR, 388.6, hit, 1, 0
350, 3, T_Sinc, T_Sinc_UGRG, 0.2, miss, 1514728, 1
351, 3, T_Scon, T_Scon_DGRG, 327.5, incorrect, 1, 1
352, 3, T_Sinc, T_Sinc_DRLR, 363.0, hit, 1, 0
353, 3, T_Sinc, T_Sinc_UGRG, 898.4, hit, 2, 0
354, 3, T_Sinc, T_Sinc_DRLR, 357.8, hit, 1, 0
355, 3, T_Sinc, T_Sinc_UGRG, 353.3, hit, 2, 0
356, 3, T_Sinc, T_Sinc_UGRG, 340.7, hit, 2, 0
357, 3, T_Scon, T_Scon_DGRG, 376.2, hit, 2, 0
358, 3, T_Sinc, T_Sinc_DRLR, 383.6, hit, 1, 0
359, 3, T_Sinc, T_Sinc_UGRG, 387.0, hit, 2, 0
360, 3, T_Scon, T_Scon_URLR, 378.5, hit, 1, 0
361, 3, T_Sinc, T_Sinc_DRLR, 0.2, miss, 1935866, 1
362, 3, T_Scon, T_Scon_DGRG, 0.2, miss, 1957031, 1
363, 3, T_Scon, T_Scon_URLR, 0.2, miss, 1977196, 1
364, 3, T_Scon, T_Scon_DGRG, 563.9, hit, 2, 0
365, 3, T_Sinc, T_Sinc_DRLR, 375.3, hit, 1, 0
366, 3, T_Sinc, T_Sinc_UGRG, 410.8, hit, 2, 0
367, 3, T_Sinc, T_Sinc_UGRG, 326.2, hit, 2, 0
368, 3, T_Sinc, T_Sinc_UGRG, 333.6, hit, 2, 0
369, 3, T_Scon, T_Scon_URLR, 325.1, hit, 1, 0
370, 3, T_Scon, T_Scon_DGRG, 336.6, hit, 2, 0
371, 3, T_Scon, T_Scon_URLR, 335.9, hit, 1, 0
372, 3, T_Sinc, T_Sinc_DRLR, 603.4, hit, 1, 0
373, 3, T_Sinc, T_Sinc_UGRG, 446.9, hit, 2, 0
374, 3, T_Sinc, T_Sinc_UGRG, 338.3, hit, 2, 0
375, 3, T_Sinc, T_Sinc_UGRG, 445.6, hit, 2, 0
376, 3, T_Scon, T_Scon_URLR, 469.2, hit, 1, 0
377, 3, T_Sinc, T_Sinc_UGRG, 360.6, hit, 2, 0
378, 3, T_Scon, T_Scon_DGRG, 316.0, hit, 2, 0
379, 3, T_Scon, T_Scon_URLR, 339.4, hit, 1, 0
380, 3, T_Scon, T_Scon_DGRG, 326.9, hit, 2, 0
381, 3, T_Sinc, T_Sinc_UGRG, 322.3, hit, 2, 0
382, 3, T_Scon, T_Scon_DGRG, 301.7, hit, 2, 0
383, 3, T_Sinc, T_Sinc_UGRG, 321.2, hit, 2, 0
384, 3, T_Scon, T_Scon_URLR, 380.7, hit, 1, 0
385, 3, T_Sinc, T_Sinc_DRLR, 320.0, incorrect, 2, 1
386, 3, T_Scon, T_Scon_URLR, 347.5, hit, 1, 0
387, 3, T_Scon, T_Scon_DGRG, 255.0, hit, 2, 0
388, 3, T_Scon, T_Scon_URLR, 442.4, hit, 1, 0
389, 3, T_Scon, T_Scon_URLR, 461.8, hit, 1, 0
390, 3, T_Sinc, T_Sinc_DRLR, 789.2, hit, 1, 0
391, 3, T_Scon, T_Scon_DGRG, 0.2, miss, 2534824, 1
392, 3, T_Scon, T_Scon_DGRG, 384.1, hit, 2, 0
393, 3, T_Sinc, T_Sinc_UGRG, 0.2, miss, 2575155, 1
394, 3, T_Sinc, T_Sinc_UGRG, 427.0, hit, 2, 0
395, 3, T_Scon, T_Scon_DGRG, 614.5, hit, 2, 0
396, 3, T_Scon, T_Scon_DGRG, 321.8, hit, 2, 0
397, 3, T_Sinc, T_Sinc_DRLR, 609.1, hit, 1, 0
398, 3, T_Scon, T_Scon_URLR, 328.5, hit, 1, 0
399, 3, T_Sinc, T_Sinc_UGRG, 319.9, hit, 2, 0
400, 3, T_Scon, T_Scon_DGRG, 303.3, hit, 2, 0
401, 3, T_Sinc, T_Sinc_UGRG, 490.8, hit, 2, 0
402, 3, T_Sinc, T_Sinc_DRLR, 638.1, hit, 1, 0
403, 3, T_Scon, T_Scon_DGRG, 325.6, hit, 2, 0
404, 3, T_Scon, T_Scon_URLR, 377.1, hit, 1, 0
405, 3, T_Scon, T_Scon_URLR, 0.1, miss, 3024457, 1
406, 3, T_Scon, T_Scon_DGRG, 0.2, miss, 3045622, 1
407, 3, T_Scon, T_Scon_URLR, 979.4, hit, 1, 2
408, 3, T_Sinc, T_Sinc_DRLR, 406.8, hit, 1, 0
409, 3, T_Scon, T_Scon_URLR, 306.3, hit, 1, 0
410, 3, T_Scon, T_Scon_DGRG, 317.8, hit, 2, 0
411, 3, T_Sinc, T_Sinc_DRLR, 333.1, hit, 1, 0
412, 3, T_Sinc, T_Sinc_UGRG, 124.6, incorrect, 1, 1
413, 3, T_Scon, T_Scon_DGRG, 312.0, hit, 2, 0
414, 3, T_Scon, T_Scon_DGRG, 327.4, hit, 2, 0
415, 3, T_Scon, T_Scon_DGRG, 374.9, hit, 2, 0
416, 3, T_Sinc, T_Sinc_DRLR, 386.4, hit, 1, 0
417, 3, T_Scon, T_Scon_URLR, 0.1, miss, 3268440, 1
418, 3, T_Scon, T_Scon_DGRG, 0.2, miss, 3289605, 1
419, 3, T_Sinc, T_Sinc_UGRG, 1516.6, hit, 2, 2
420, 3, T_Sinc, T_Sinc_DRLR, 396.1, hit, 1, 0
421, 3, T_Scon, T_Scon_DGRG, 347.6, hit, 2, 0
422, 3, T_Sinc, T_Sinc_DRLR, 390.9, hit, 1, 0
423, 3, T_Scon, T_Scon_DGRG, 454.4, incorrect, 1, 1
424, 3, T_Sinc, T_Sinc_DRLR, 329.9, hit, 1, 0
425, 3, T_Scon, T_Scon_DGRG, 0.2, miss, 3430762, 1
426, 3, T_Sinc, T_Sinc_UGRG, 0.1, miss, 3449928, 1
427, 3, T_Scon, T_Scon_URLR, 352.2, hit, 1, 0
428, 3, T_Scon, T_Scon_DGRG, 319.7, hit, 2, 0
429, 3, T_Sinc, T_Sinc_UGRG, 363.1, hit, 2, 0
430, 3, T_Sinc, T_Sinc_UGRG, 310.5, hit, 2, 0
431, 3, T_Scon, T_Scon_URLR, 305.9, hit, 1, 0
432, 3, T_Scon, T_Scon_DGRG, 301.4, hit, 2, 0
433, 4, T_Sinc, T_Sinc_DRLR, 389.9, hit, 1, 0
434, 4, T_Sinc, T_Sinc_UGRG, 337.4, hit, 2, 0
435, 4, T_Sinc, T_Sinc_UGRG, 284.8, hit, 2, 0
436, 4, T_Scon, T_Scon_URLR, 300.3, hit, 1, 0
437, 4, T_Sinc, T_Sinc_DRLR, 287.7, hit, 1, 0
438, 4, T_Sinc, T_Sinc_DRLR, 427.1, hit, 1, 0
439, 4, T_Sinc, T_Sinc_UGRG, 294.5, incorrect, 1, 1
440, 4, T_Scon, T_Scon_DGRG, 470.0, hit, 2, 0
441, 4, T_Scon, T_Scon_URLR, 309.4, hit, 1, 0
442, 4, T_Scon, T_Scon_URLR, 312.8, hit, 1, 0
443, 4, T_Sinc, T_Sinc_DRLR, 340.3, hit, 1, 0
444, 4, T_Scon, T_Scon_URLR, 367.7, hit, 1, 0
445, 4, T_Scon, T_Scon_URLR, 311.1, hit, 1, 0
446, 4, T_Scon, T_Scon_URLR, 406.5, hit, 1, 0
447, 4, T_Scon, T_Scon_URLR, 314.0, hit, 1, 0
448, 4, T_Scon, T_Scon_URLR, 381.4, hit, 1, 0
449, 4, T_Sinc, T_Sinc_DRLR, 148.8, hit, 1, 0
450, 4, T_Scon, T_Scon_DGRG, 616.3, hit, 2, 0
451, 4, T_Scon, T_Scon_URLR, 1195.7, hit, 1, 2
452, 4, T_Scon, T_Scon_DGRG, 1075.2, hit, 2, 2
453, 4, T_Scon, T_Scon_URLR, 530.6, hit, 1, 0
454, 4, T_Scon, T_Scon_DGRG, 630.1, hit, 2, 0
455, 4, T_Sinc, T_Sinc_UGRG, 409.5, hit, 2, 0
456, 4, T_Scon, T_Scon_DGRG, 381.0, hit, 2, 0
457, 4, T_Scon, T_Scon_DGRG, 352.3, hit, 2, 0
458, 4, T_Sinc, T_Sinc_DRLR, 691.8, hit, 1, 0
459, 4, T_Scon, T_Scon_DGRG, 371.3, hit, 2, 0
460, 4, T_Scon, T_Scon_DGRG, 294.7, hit, 2, 0
461, 4, T_Sinc, T_Sinc_UGRG, 362.1, hit, 2, 0
462, 4, T_Sinc, T_Sinc_DRLR, 949.5, hit, 1, 0
463, 4, T_Sinc, T_Sinc_DRLR, 369.0, hit, 1, 0
464, 4, T_Scon, T_Scon_DGRG, 388.5, hit, 2, 0
465, 4, T_Sinc, T_Sinc_UGRG, 423.9, hit, 2, 0
466, 4, T_Sinc, T_Sinc_UGRG, 355.3, hit, 2, 0
467, 4, T_Scon, T_Scon_DGRG, 882.8, hit, 2, 2
468, 4, T_Sinc, T_Sinc_DRLR, 294.2, hit, 1, 0
469, 4, T_Scon, T_Scon_URLR, 381.4, hit, 1, 0
470, 4, T_Scon, T_Scon_DGRG, 520.8, hit, 2, 0
471, 4, T_Sinc, T_Sinc_UGRG, 304.2, hit, 2, 0
472, 4, T_Scon, T_Scon_URLR, 299.7, hit, 1, 0
473, 4, T_Sinc, T_Sinc_DRLR, 371.1, hit, 1, 0
474, 4, T_Scon, T_Scon_DGRG, 390.6, hit, 2, 0
475, 4, T_Sinc, T_Sinc_DRLR, 409.9, hit, 1, 0
476, 4, T_Sinc, T_Sinc_UGRG, 373.4, hit, 2, 0
477, 4, T_Scon, T_Scon_DGRG, 312.9, hit, 2, 0
478, 4, T_Sinc, T_Sinc_UGRG, 532.2, hit, 2, 0
479, 4, T_Scon, T_Scon_DGRG, 327.7, hit, 2, 0
480, 4, T_Sinc, T_Sinc_UGRG, 723.2, hit, 2, 0
481, 4, T_Sinc, T_Sinc_UGRG, 518.5, hit, 2, 0
482, 4, T_Scon, T_Scon_URLR, 698.0, hit, 1, 0
483, 4, T_Scon, T_Scon_URLR, 1229.4, incorrect, 2, 1
484, 4, T_Scon, T_Scon_DGRG, 1257.0, hit, 2, 2
485, 4, T_Sinc, T_Sinc_UGRG, 0.2, miss, 1336907, 1
486, 4, T_Sinc, T_Sinc_UGRG, 415.7, hit, 2, 0
487, 4, T_Scon, T_Scon_URLR, 295.2, hit, 1, 0
488, 4, T_Scon, T_Scon_DGRG, 862.7, hit, 2, 0
489, 4, T_Sinc, T_Sinc_DRLR, 366.0, hit, 1, 0
490, 4, T_Sinc, T_Sinc_UGRG, 0.1, miss, 1437734, 1
491, 4, T_Scon, T_Scon_DGRG, 517.0, hit, 2, 0
492, 4, T_Sinc, T_Sinc_DRLR, 956.4, hit, 1, 0
493, 4, T_Sinc, T_Sinc_DRLR, 0.1, miss, 1497230, 1
494, 4, T_Sinc, T_Sinc_DRLR, 1099.3, hit, 1, 2
495, 4, T_Sinc, T_Sinc_DRLR, 322.7, hit, 1, 0
496, 4, T_Sinc, T_Sinc_UGRG, 326.2, hit, 2, 0
497, 4, T_Scon, T_Scon_URLR, 301.6, hit, 1, 0
498, 4, T_Scon, T_Scon_DGRG, 317.0, incorrect, 1, 1
499, 4, T_Scon, T_Scon_DGRG, 0.1, miss, 1619221, 1
500, 4, T_Scon, T_Scon_DGRG, 463.9, hit, 2, 0
501, 4, T_Sinc, T_Sinc_DRLR, 343.3, hit, 1, 0
502, 4, T_Scon, T_Scon_DGRG, 330.8, hit, 2, 0
503, 4, T_Scon, T_Scon_URLR, 354.2, hit, 1, 0
504, 4, T_Sinc, T_Sinc_UGRG, 333.7, hit, 2, 0
505, 4, T_Scon, T_Scon_DGRG, 912.9, hit, 2, 2
506, 4, T_Scon, T_Scon_DGRG, 364.3, hit, 2, 0
507, 4, T_Scon, T_Scon_URLR, 319.7, hit, 1, 0
508, 4, T_Sinc, T_Sinc_UGRG, 319.1, hit, 2, 0
509, 4, T_Sinc, T_Sinc_DRLR, 350.5, hit, 1, 0
510, 4, T_Scon, T_Scon_URLR, 350.0, hit, 1, 0
511, 4, T_Scon, T_Scon_URLR, 417.4, incorrect, 2, 1
512, 4, T_Sinc, T_Sinc_DRLR, 348.8, hit, 1, 0
513, 4, T_Sinc, T_Sinc_UGRG, 0.1, miss, 2106854, 1
514, 4, T_Sinc, T_Sinc_UGRG, 0.2, miss, 2126019, 1
515, 4, T_Sinc, T_Sinc_UGRG, 459.2, hit, 2, 0
516, 4, T_Sinc, T_Sinc_DRLR, 506.6, hit, 1, 0
517, 4, T_Sinc, T_Sinc_UGRG, 1234.1, hit, 2, 2
518, 4, T_Scon, T_Scon_URLR, 405.5, hit, 1, 0
519, 4, T_Scon, T_Scon_DGRG, 364.9, hit, 2, 0
520, 4, T_Scon, T_Scon_URLR, 464.4, hit, 1, 0
521, 4, T_Sinc, T_Sinc_DRLR, 551.8, hit, 1, 0
522, 4, T_Sinc, T_Sinc_DRLR, 475.3, hit, 1, 0
523, 4, T_Scon, T_Scon_DGRG, 366.6, hit, 2, 0
524, 4, T_Sinc, T_Sinc_DRLR, 346.1, hit, 1, 0
525, 4, T_Sinc, T_Sinc_UGRG, 445.6, hit, 2, 0
526, 4, T_Sinc, T_Sinc_UGRG, 328.9, hit, 2, 0
527, 4, T_Scon, T_Scon_URLR, 304.4, hit, 1, 0
528, 4, T_Scon, T_Scon_DGRG, 339.9, hit, 2, 0
529, 4, T_Scon, T_Scon_URLR, 355.4, hit, 1, 0
530, 4, T_Sinc, T_Sinc_UGRG, 446.7, incorrect, 1, 1
531, 4, T_Sinc, T_Sinc_DRLR, 0.1, miss, 2470829, 1
532, 4, T_Scon, T_Scon_DGRG, 245.6, incorrect, 1, 1
533, 4, T_Scon, T_Scon_DGRG, 393.1, hit, 2, 0
534, 4, T_Sinc, T_Sinc_DRLR, 684.5, hit, 1, 0
535, 4, T_Sinc, T_Sinc_DRLR, 375.9, hit, 1, 0
536, 4, T_Scon, T_Scon_URLR, 1203.4, hit, 1, 2
537, 4, T_Sinc, T_Sinc_UGRG, 454.9, hit, 2, 0
538, 4, T_Sinc, T_Sinc_UGRG, 730.3, hit, 2, 0
539, 4, T_Sinc, T_Sinc_UGRG, 361.7, hit, 2, 0
540, 4, T_Sinc, T_Sinc_UGRG, 365.2, hit, 2, 0
541, 4, T_Sinc, T_Sinc_DRLR, 464.3, hit, 1, 0
542, 4, T_Sinc, T_Sinc_UGRG, 339.7, hit, 2, 0
543, 4, T_Sinc, T_Sinc_UGRG, 339.2, hit, 2, 0
544, 4, T_Sinc, T_Sinc_DRLR, 358.6, hit, 1, 0
545, 4, T_Sinc, T_Sinc_DRLR, 338.0, hit, 1, 0
546, 4, T_Scon, T_Scon_URLR, 349.5, hit, 1, 0
547, 4, T_Sinc, T_Sinc_DRLR, 280.8, hit, 1, 0
548, 4, T_Sinc, T_Sinc_UGRG, 324.3, hit, 2, 0
549, 4, T_Scon, T_Scon_URLR, 303.8, hit, 1, 0
550, 4, T_Sinc, T_Sinc_UGRG, 371.2, hit, 2, 0
551, 4, T_Scon, T_Scon_DGRG, 390.7, hit, 2, 0
552, 4, T_Scon, T_Scon_DGRG, 430.1, hit, 2, 0
553, 4, T_Scon, T_Scon_DGRG, 361.5, hit, 2, 0
554, 4, T_Sinc, T_Sinc_DRLR, 429.0, hit, 1, 0
555, 4, T_Scon, T_Scon_URLR, 368.4, incorrect, 2, 1
556, 4, T_Scon, T_Scon_DGRG, 0.1, miss, 3177280, 1
557, 4, T_Sinc, T_Sinc_DRLR, 0.2, miss, 3198445, 1
558, 4, T_Sinc, T_Sinc_DRLR, 58.8, hit, 1, 0
559, 4, T_Scon, T_Scon_URLR, 702.1, hit, 1, 0
560, 4, T_Sinc, T_Sinc_DRLR, 1349.6, hit, 1, 2
561, 4, T_Scon, T_Scon_DGRG, 413.0, hit, 2, 0
562, 4, T_Sinc, T_Sinc_UGRG, 352.4, hit, 2, 0
563, 4, T_Sinc, T_Sinc_DRLR, 371.9, hit, 1, 0
564, 4, T_Sinc, T_Sinc_UGRG, 1135.3, hit, 2, 2
565, 4, T_Scon, T_Scon_URLR, 454.7, hit, 1, 0
566, 4, T_Scon, T_Scon_URLR, 0.1, miss, 3375933, 1
567, 4, T_Scon, T_Scon_URLR, 345.7, hit, 1, 0
568, 4, T_Scon, T_Scon_URLR, 605.1, hit, 1, 0
569, 4, T_Sinc, T_Sinc_UGRG, 0.2, miss, 3437428, 1
570, 4, T_Scon, T_Scon_DGRG, 903.9, hit, 2, 2
571, 4, T_Scon, T_Scon_URLR, 299.4, hit, 1, 0
572, 4, T_Scon, T_Scon_DGRG, 290.9, hit, 2, 0
573, 4, T_Scon, T_Scon_DGRG, 318.3, hit, 2, 0
574, 4, T_Sinc, T_Sinc_DRLR, 309.7, hit, 1, 0
575, 4, T_Scon, T_Scon_URLR, 453.1, hit, 1, 0
576, 4, T_Scon, T_Scon_URLR, 396.6, hit, 1, 0
577, 5, T_Scon, T_Scon_URLR, 324.0, hit, 1, 0
578, 5, T_Scon, T_Scon_URLR, 295.5, hit, 1, 0
579, 5, T_Sinc, T_Sinc_UGRG, 374.9, hit, 2, 0
580, 5, T_Sinc, T_Sinc_DRLR, 322.4, hit, 1, 0
581, 5, T_Scon, T_Scon_URLR, 257.7, hit, 1, 0
582, 5, T_Scon, T_Scon_URLR, 217.2, hit, 1, 0
583, 5, T_Sinc, T_Sinc_DRLR, 296.7, incorrect, 2, 1
584, 5, T_Scon, T_Scon_DGRG, 384.1, hit, 2, 0
585, 5, T_Scon, T_Scon_DGRG, 259.5, hit, 2, 0
586, 5, T_Sinc, T_Sinc_UGRG, 359.0, hit, 2, 0
587, 5, T_Sinc, T_Sinc_DRLR, 254.4, hit, 1, 0
588, 5, T_Scon, T_Scon_URLR, 297.9, hit, 1, 0
589, 5, T_Scon, T_Scon_URLR, 253.3, hit, 1, 0
590, 5, T_Scon, T_Scon_URLR, 304.7, hit, 1, 0
591, 5, T_Sinc, T_Sinc_UGRG, 308.2, hit, 2, 0
592, 5, T_Scon, T_Scon_DGRG, 367.5, hit, 2, 0
593, 5, T_Scon, T_Scon_DGRG, 391.0, hit, 2, 0
594, 5, T_Sinc, T_Sinc_UGRG, 330.5, hit, 2, 0
595, 5, T_Scon, T_Scon_DGRG, 365.9, hit, 2, 0
596, 5, T_Sinc, T_Sinc_DRLR, 305.3, hit, 1, 0
597, 5, T_Scon, T_Scon_DGRG, 372.8, hit, 2, 0
598, 5, T_Scon, T_Scon_DGRG, 308.2, hit, 2, 0
599, 5, T_Sinc, T_Sinc_UGRG, 359.7, hit, 2, 0
600, 5, T_Sinc, T_Sinc_UGRG, 347.1, hit, 2, 0
601, 5, T_Sinc, T_Sinc_DRLR, 310.5, hit, 1, 0
602, 5, T_Scon, T_Scon_DGRG, 346.0, hit, 2, 0
603, 5, T_Sinc, T_Sinc_UGRG, 401.4, hit, 2, 0
604, 5, T_Scon, T_Scon_DGRG, 380.8, hit, 2, 0
605, 5, T_Sinc, T_Sinc_DRLR, 356.3, hit, 1, 0
606, 5, T_Scon, T_Scon_URLR, 431.7, hit, 1, 0
607, 5, T_Scon, T_Scon_URLR, 387.1, hit, 1, 0
608, 5, T_Scon, T_Scon_DGRG, 618.6, hit, 2, 0
609, 5, T_Scon, T_Scon_URLR, 618.0, hit, 1, 0
610, 5, T_Sinc, T_Sinc_DRLR, 509.4, hit, 1, 0
611, 5, T_Sinc, T_Sinc_DRLR, 0.1, miss, 758781, 1
612, 5, T_Scon, T_Scon_DGRG, 520.3, hit, 2, 0
613, 5, T_Sinc, T_Sinc_UGRG, 439.5, hit, 2, 0
614, 5, T_Sinc, T_Sinc_DRLR, 330.9, hit, 1, 0
615, 5, T_Scon, T_Scon_DGRG, 350.4, hit, 2, 0
616, 5, T_Sinc, T_Sinc_UGRG, 281.8, hit, 2, 0
617, 5, T_Sinc, T_Sinc_DRLR, 341.2, hit, 1, 0
618, 5, T_Sinc, T_Sinc_DRLR, 332.7, hit, 1, 0
619, 5, T_Scon, T_Scon_URLR, 288.1, hit, 1, 0
620, 5, T_Sinc, T_Sinc_UGRG, 459.5, hit, 2, 0
621, 5, T_Sinc, T_Sinc_DRLR, 319.0, hit, 1, 0
622, 5, T_Sinc, T_Sinc_UGRG, 418.4, hit, 2, 0
623, 5, T_Sinc, T_Sinc_DRLR, 337.9, hit, 1, 0
624, 5, T_Sinc, T_Sinc_UGRG, 309.2, hit, 2, 0
625, 5, T_Sinc, T_Sinc_DRLR, 456.7, hit, 1, 0
626, 5, T_Sinc, T_Sinc_DRLR, 1148.2, hit, 1, 2
627, 5, T_Sinc, T_Sinc_DRLR, 927.6, incorrect, 2, 1
628, 5, T_Sinc, T_Sinc_UGRG, 359.0, incorrect, 1, 1
629, 5, T_Sinc, T_Sinc_DRLR, 362.5, hit, 1, 0
630, 5, T_Sinc, T_Sinc_UGRG, 373.9, hit, 2, 0
631, 5, T_Sinc, T_Sinc_DRLR, 353.4, hit, 1, 0
632, 5, T_Sinc, T_Sinc_DRLR, 464.7, hit, 1, 0
633, 5, T_Scon, T_Scon_URLR, 840.2, incorrect, 2, 1
634, 5, T_Sinc, T_Sinc_DRLR, 355.7, hit, 1, 0
635, 5, T_Sinc, T_Sinc_DRLR, 395.2, hit, 1, 0
636, 5, T_Scon, T_Scon_URLR, 342.5, hit, 1, 0
637, 5, T_Sinc, T_Sinc_DRLR, 386.0, hit, 1, 0
638, 5, T_Scon, T_Scon_URLR, 965.4, hit, 1, 2
639, 5, T_Sinc, T_Sinc_UGRG, 368.9, hit, 2, 0
640, 5, T_Sinc, T_Sinc_UGRG, 404.3, hit, 2, 0
641, 5, T_Sinc, T_Sinc_UGRG, 351.8, hit, 2, 0
642, 5, T_Scon, T_Scon_URLR, 783.2, incorrect, 2, 1
643, 5, T_Sinc, T_Sinc_UGRG, 730.6, hit, 2, 0
644, 5, T_Scon, T_Scon_URLR, 0.1, miss, 1627554, 1
645, 5, T_Scon, T_Scon_DGRG, 421.5, hit, 2, 0
646, 5, T_Sinc, T_Sinc_UGRG, 425.0, hit, 2, 0
647, 5, T_Sinc, T_Sinc_UGRG, 764.3, hit, 2, 0
648, 5, T_Scon, T_Scon_DGRG, 679.8, hit, 2, 0
649, 5, T_Scon, T_Scon_DGRG, 591.0, hit, 2, 0
650, 5, T_Scon, T_Scon_URLR, 402.4, hit, 1, 0
651, 5, T_Scon, T_Scon_URLR, 325.8, hit, 1, 0
652, 5, T_Scon, T_Scon_DGRG, 341.3, hit, 2, 0
653, 5, T_Scon, T_Scon_DGRG, 344.7, hit, 2, 0
654, 5, T_Scon, T_Scon_DGRG, 292.1, hit, 2, 0
655, 5, T_Sinc, T_Sinc_UGRG, 351.6, hit, 2, 0
656, 5, T_Sinc, T_Sinc_DRLR, 343.0, hit, 1, 0
657, 5, T_Scon, T_Scon_URLR, 406.4, hit, 1, 0
658, 5, T_Scon, T_Scon_DGRG, 341.9, hit, 2, 0
659, 5, T_Scon, T_Scon_DGRG, 297.3, hit, 2, 0
660, 5, T_Sinc, T_Sinc_UGRG, 280.8, hit, 2, 0
661, 5, T_Sinc, T_Sinc_UGRG, 308.2, hit, 2, 0
662, 5, T_Scon, T_Scon_URLR, 339.6, hit, 1, 0
663, 5, T_Scon, T_Scon_URLR, 335.1, hit, 1, 0
664, 5, T_Sinc, T_Sinc_UGRG, 290.6, hit, 2, 0
665, 5, T_Sinc, T_Sinc_UGRG, 333.9, hit, 2, 0
666, 5, T_Scon, T_Scon_URLR, 353.4, hit, 1, 0
667, 5, T_Scon, T_Scon_DGRG, 336.9, hit, 2, 0
668, 5, T_Sinc, T_Sinc_DRLR, 376.2, hit, 1, 0
669, 5, T_Sinc, T_Sinc_UGRG, 351.7, hit, 2, 0
670, 5, T_Scon, T_Scon_DGRG, 375.1, hit, 2, 0
671, 5, T_Scon, T_Scon_URLR, 322.6, hit, 1, 0
672, 5, T_Sinc, T_Sinc_UGRG, 302.0, hit, 2, 0
673, 5, T_Scon, T_Scon_URLR, 353.5, hit, 1, 0
674, 5, T_Sinc, T_Sinc_DRLR, 692.9, hit, 1, 0
675, 5, T_Sinc, T_Sinc_DRLR, 560.3, hit, 1, 0
676, 5, T_Sinc, T_Sinc_DRLR, 355.7, hit, 1, 0
677, 5, T_Scon, T_Scon_DGRG, 319.2, incorrect, 1, 1
678, 5, T_Scon, T_Scon_URLR, 346.7, hit, 1, 0
679, 5, T_Sinc, T_Sinc_UGRG, 338.1, hit, 2, 0
680, 5, T_Scon, T_Scon_DGRG, 365.5, hit, 2, 0
681, 5, T_Scon, T_Scon_DGRG, 345.0, hit, 2, 0
682, 5, T_Scon, T_Scon_DGRG, 252.4, hit, 2, 0
683, 5, T_Sinc, T_Sinc_UGRG, 291.8, hit, 2, 0
684, 5, T_Sinc, T_Sinc_DRLR, 375.2, hit, 1, 0
685, 5, T_Scon, T_Scon_URLR, 354.5, hit, 1, 0
686, 5, T_Scon, T_Scon_DGRG, 333.8, hit, 2, 0
687, 5, T_Sinc, T_Sinc_UGRG, 353.3, hit, 2, 0
688, 5, T_Sinc, T_Sinc_DRLR, 508.7, hit, 1, 0
689, 5, T_Scon, T_Scon_DGRG, 352.2, hit, 2, 0
690, 5, T_Sinc, T_Sinc_UGRG, 271.6, hit, 2, 0
691, 5, T_Scon, T_Scon_URLR, 355.0, hit, 1, 0
692, 5, T_Scon, T_Scon_URLR, 386.5, hit, 1, 0
693, 5, T_Scon, T_Scon_DGRG, 289.9, hit, 2, 0
694, 5, T_Scon, T_Scon_DGRG, 297.3, hit, 2, 0
695, 5, T_Sinc, T_Sinc_UGRG, 332.8, hit, 2, 0
696, 5, T_Sinc, T_Sinc_DRLR, 356.3, hit, 1, 0
697, 5, T_Sinc, T_Sinc_DRLR, 343.6, hit, 1, 0
698, 5, T_Sinc, T_Sinc_UGRG, 331.1, hit, 2, 0
699, 5, T_Sinc, T_Sinc_DRLR, 430.6, hit, 1, 0
700, 5, T_Sinc, T_Sinc_UGRG, 278.0, hit, 2, 0
701, 5, T_Scon, T_Scon_URLR, 337.4, hit, 1, 0
702, 5, T_Scon, T_Scon_DGRG, 396.8, hit, 2, 0
703, 5, T_Sinc, T_Sinc_DRLR, 356.3, hit, 1, 0
704, 5, T_Scon, T_Scon_URLR, 327.8, hit, 1, 0
705, 5, T_Scon, T_Scon_DGRG, 379.1, hit, 2, 0
706, 5, T_Scon, T_Scon_URLR, 438.6, hit, 1, 0
707, 5, T_Scon, T_Scon_URLR, 366.1, hit, 1, 0
708, 5, T_Scon, T_Scon_URLR, 353.5, hit, 1, 0
709, 5, T_Scon, T_Scon_DGRG, 388.9, hit, 2, 0
710, 5, T_Scon, T_Scon_URLR, 408.4, hit, 1, 0
711, 5, T_Scon, T_Scon_URLR, 375.8, hit, 1, 0
712, 5, T_Sinc, T_Sinc_UGRG, 371.2, hit, 2, 0
713, 5, T_Sinc, T_Sinc_DRLR, 322.6, hit, 1, 0
714, 5, T_Sinc, T_Sinc_DRLR, 338.2, hit, 1, 0
715, 5, T_Scon, T_Scon_DGRG, 289.6, hit, 2, 0
716, 5, T_Sinc, T_Sinc_DRLR, 344.9, hit, 1, 0
717, 5, T_Scon, T_Scon_DGRG, 376.4, hit, 2, 0
718, 5, T_Sinc, T_Sinc_UGRG, 459.9, hit, 2, 0
719, 5, T_Scon, T_Scon_DGRG, 343.3, hit, 2, 0
720, 5, T_Scon, T_Scon_URLR, 298.7, hit, 1, 0
721, 6, T_Sinc, T_Sinc_UGRG, 626.7, hit, 2, 0
722, 6, T_Sinc, T_Sinc_UGRG, 310.2, hit, 2, 0
723, 6, T_Sinc, T_Sinc_UGRG, 253.5, hit, 2, 0
724, 6, T_Scon, T_Scon_URLR, 361.0, hit, 1, 0
725, 6, T_Scon, T_Scon_DGRG, 372.5, hit, 2, 0
726, 6, T_Sinc, T_Sinc_UGRG, 343.9, hit, 2, 0
727, 6, T_Scon, T_Scon_URLR, 315.3, hit, 1, 0
728, 6, T_Sinc, T_Sinc_UGRG, 342.7, hit, 2, 0
729, 6, T_Scon, T_Scon_URLR, 322.2, hit, 1, 0
730, 6, T_Sinc, T_Sinc_DRLR, 425.7, hit, 1, 0
731, 6, T_Sinc, T_Sinc_DRLR, 317.0, hit, 1, 0
732, 6, T_Sinc, T_Sinc_UGRG, 320.5, hit, 2, 0
733, 6, T_Scon, T_Scon_URLR, 299.9, hit, 1, 0
734, 6, T_Scon, T_Scon_URLR, 315.3, hit, 1, 0
735, 6, T_Scon, T_Scon_URLR, 338.8, hit, 1, 0
736, 6, T_Scon, T_Scon_URLR, 294.3, hit, 1, 0
737, 6, T_Scon, T_Scon_URLR, 273.7, hit, 1, 0
738, 6, T_Sinc, T_Sinc_DRLR, 421.1, hit, 1, 0
739, 6, T_Scon, T_Scon_URLR, 332.6, hit, 1, 0
740, 6, T_Sinc, T_Sinc_DRLR, 340.0, hit, 1, 0
741, 6, T_Scon, T_Scon_DGRG, 387.5, hit, 2, 0
742, 6, T_Sinc, T_Sinc_UGRG, 366.9, hit, 2, 0
743, 6, T_Scon, T_Scon_URLR, 310.3, hit, 1, 0
744, 6, T_Scon, T_Scon_DGRG, 341.8, hit, 2, 0
745, 6, T_Sinc, T_Sinc_UGRG, 437.1, hit, 2, 0
746, 6, T_Sinc, T_Sinc_UGRG, 340.6, hit, 2, 0
747, 6, T_Scon, T_Scon_DGRG, 320.1, hit, 2, 0
748, 6, T_Scon, T_Scon_URLR, 319.5, hit, 1, 0
749, 6, T_Scon, T_Scon_DGRG, 374.9, hit, 2, 0
750, 6, T_Sinc, T_Sinc_UGRG, 314.4, hit, 2, 0
751, 6, T_Scon, T_Scon_URLR, 329.8, hit, 1, 0
752, 6, T_Scon, T_Scon_URLR, 469.2, hit, 1, 0
753, 6, T_Scon, T_Scon_URLR, 368.7, hit, 1, 0
754, 6, T_Scon, T_Scon_DGRG, 460.1, hit, 2, 0
755, 6, T_Sinc, T_Sinc_DRLR, 335.6, hit, 1, 0
756, 6, T_Scon, T_Scon_DGRG, 342.9, hit, 2, 0
757, 6, T_Sinc, T_Sinc_UGRG, 0.1, miss, 992431, 1
758, 6, T_Scon, T_Scon_DGRG, 0.1, miss, 1011597, 1
759, 6, T_Scon, T_Scon_DGRG, 429.0, hit, 2, 0
760, 6, T_Sinc, T_Sinc_UGRG, 360.4, hit, 2, 0
761, 6, T_Scon, T_Scon_URLR, 323.8, hit, 1, 0
762, 6, T_Sinc, T_Sinc_DRLR, 347.3, hit, 1, 0
763, 6, T_Sinc, T_Sinc_UGRG, 326.7, hit, 2, 0
764, 6, T_Scon, T_Scon_URLR, 330.2, hit, 1, 0
765, 6, T_Sinc, T_Sinc_DRLR, 301.6, hit, 1, 0
766, 6, T_Sinc, T_Sinc_DRLR, 385.0, hit, 1, 0
767, 6, T_Sinc, T_Sinc_DRLR, 316.5, hit, 1, 0
768, 6, T_Scon, T_Scon_DGRG, 412.0, hit, 2, 0
769, 6, T_Scon, T_Scon_DGRG, 359.3, hit, 2, 0
770, 6, T_Sinc, T_Sinc_DRLR, 334.8, hit, 1, 0
771, 6, T_Scon, T_Scon_URLR, 382.3, hit, 1, 0
772, 6, T_Sinc, T_Sinc_DRLR, 281.6, hit, 1, 0
773, 6, T_Sinc, T_Sinc_DRLR, 325.1, hit, 1, 0
774, 6, T_Sinc, T_Sinc_DRLR, 376.9, hit, 1, 0
775, 6, T_Sinc, T_Sinc_UGRG, 428.0, hit, 2, 0
776, 6, T_Scon, T_Scon_DGRG, 303.5, hit, 2, 0
777, 6, T_Scon, T_Scon_DGRG, 374.8, hit, 2, 0
778, 6, T_Scon, T_Scon_DGRG, 330.3, hit, 2, 0
779, 6, T_Sinc, T_Sinc_DRLR, 313.8, hit, 1, 0
780, 6, T_Sinc, T_Sinc_DRLR, 301.2, hit, 1, 0
781, 6, T_Sinc, T_Sinc_DRLR, 344.6, hit, 1, 0
782, 6, T_Scon, T_Scon_URLR, 336.1, hit, 1, 0
783, 6, T_Scon, T_Scon_DGRG, 371.5, hit, 2, 0
784, 6, T_Sinc, T_Sinc_UGRG, 299.0, hit, 2, 0
785, 6, T_Sinc, T_Sinc_DRLR, 318.4, hit, 1, 0
786, 6, T_Sinc, T_Sinc_DRLR, 409.8, hit, 1, 0
787, 6, T_Sinc, T_Sinc_UGRG, 365.3, hit, 2, 0
788, 6, T_Sinc, T_Sinc_UGRG, 340.6, hit, 2, 0
789, 6, T_Sinc, T_Sinc_UGRG, 352.1, hit, 2, 0
790, 6, T_Scon, T_Scon_DGRG, 323.6, hit, 2, 0
791, 6, T_Scon, T_Scon_DGRG, 383.0, hit, 2, 0
792, 6, T_Scon, T_Scon_DGRG, 386.4, hit, 2, 0
793, 6, T_Sinc, T_Sinc_UGRG, 429.6, hit, 2, 0
794, 6, T_Scon, T_Scon_DGRG, 353.0, hit, 2, 0
795, 6, T_Scon, T_Scon_URLR, 364.4, hit, 1, 0
796, 6, T_Sinc, T_Sinc_DRLR, 343.9, hit, 1, 0
797, 6, T_Sinc, T_Sinc_UGRG, 407.3, hit, 2, 0
798, 6, T_Scon, T_Scon_URLR, 338.7, hit, 1, 0
799, 6, T_Scon, T_Scon_URLR, 374.2, hit, 1, 0
800, 6, T_Sinc, T_Sinc_UGRG, 357.7, hit, 2, 0
801, 6, T_Sinc, T_Sinc_UGRG, 577.1, hit, 2, 0
802, 6, T_Sinc, T_Sinc_DRLR, 320.5, hit, 1, 0
803, 6, T_Sinc, T_Sinc_DRLR, 424.0, hit, 1, 0
804, 6, T_Sinc, T_Sinc_DRLR, 419.4, hit, 1, 0
805, 6, T_Scon, T_Scon_DGRG, 502.9, hit, 2, 0
806, 6, T_Sinc, T_Sinc_DRLR, 422.2, hit, 1, 0
807, 6, T_Scon, T_Scon_DGRG, 497.7, hit, 2, 0
808, 6, T_Sinc, T_Sinc_DRLR, 893.2, hit, 1, 0
809, 6, T_Scon, T_Scon_URLR, 0.2, miss, 2245344, 1
810, 6, T_Sinc, T_Sinc_DRLR, 0.1, miss, 2266510, 1
811, 6, T_Sinc, T_Sinc_UGRG, 491.4, hit, 2, 0
812, 6, T_Scon, T_Scon_DGRG, 490.9, hit, 2, 0
813, 6, T_Sinc, T_Sinc_DRLR, 382.4, hit, 1, 0
814, 6, T_Scon, T_Scon_DGRG, 893.8, hit, 2, 2
815, 6, T_Scon, T_Scon_URLR, 353.2, hit, 1, 0
816, 6, T_Scon, T_Scon_URLR, 356.7, hit, 1, 0
817, 6, T_Sinc, T_Sinc_UGRG, 620.0, hit, 2, 0
818, 6, T_Sinc, T_Sinc_DRLR, 831.5, hit, 1, 0
819, 6, T_Scon, T_Scon_URLR, 451.0, hit, 1, 0
820, 6, T_Sinc, T_Sinc_DRLR, 1054.4, hit, 1, 2
821, 6, T_Scon, T_Scon_URLR, 293.8, hit, 1, 0
822, 6, T_Scon, T_Scon_DGRG, 345.3, hit, 2, 0
823, 6, T_Scon, T_Scon_DGRG, 300.7, hit, 2, 0
824, 6, T_Scon, T_Scon_DGRG, 276.2, hit, 2, 0
825, 6, T_Sinc, T_Sinc_DRLR, 351.6, hit, 1, 0
826, 6, T_Scon, T_Scon_URLR, 307.0, hit, 1, 0
827, 6, T_Scon, T_Scon_DGRG, 350.5, hit, 2, 0
828, 6, T_Scon, T_Scon_DGRG, 313.9, hit, 2, 0
829, 6, T_Sinc, T_Sinc_DRLR, 381.1, hit, 1, 0
830, 6, T_Scon, T_Scon_URLR, 348.5, hit, 1, 0
831, 6, T_Scon, T_Scon_DGRG, 351.9, hit, 2, 0
832, 6, T_Sinc, T_Sinc_DRLR, 339.4, hit, 1, 0
833, 6, T_Scon, T_Scon_URLR, 330.8, hit, 1, 0
834, 6, T_Sinc, T_Sinc_UGRG, 302.3, hit, 2, 0
835, 6, T_Scon, T_Scon_URLR, 329.7, hit, 1, 0
836, 6, T_Scon, T_Scon_URLR, 337.1, hit, 1, 0
837, 6, T_Sinc, T_Sinc_UGRG, 420.6, hit, 2, 0
838, 6, T_Scon, T_Scon_DGRG, 312.0, hit, 2, 0
839, 6, T_Sinc, T_Sinc_UGRG, 271.5, hit, 2, 0
840, 6, T_Sinc, T_Sinc_DRLR, 290.9, hit, 1, 0
841, 6, T_Sinc, T_Sinc_DRLR, 358.3, hit, 1, 0
842, 6, T_Scon, T_Scon_DGRG, 373.8, hit, 2, 0
843, 6, T_Scon, T_Scon_DGRG, 353.1, hit, 2, 0
844, 6, T_Sinc, T_Sinc_UGRG, 344.6, hit, 2, 0
845, 6, T_Sinc, T_Sinc_UGRG, 396.1, hit, 2, 0
846, 6, T_Sinc, T_Sinc_DRLR, 335.5, hit, 1, 0
847, 6, T_Scon, T_Scon_URLR, 410.9, hit, 1, 0
848, 6, T_Scon, T_Scon_DGRG, 414.4, hit, 2, 0
849, 6, T_Sinc, T_Sinc_DRLR, 481.8, incorrect, 2, 1
850, 6, T_Scon, T_Scon_URLR, 357.2, hit, 1, 0
851, 6, T_Scon, T_Scon_URLR, 336.6, hit, 1, 0
852, 6, T_Sinc, T_Sinc_UGRG, 404.1, hit, 2, 0
853, 6, T_Scon, T_Scon_DGRG, 955.6, hit, 2, 2
854, 6, T_Sinc, T_Sinc_DRLR, 374.9, hit, 1, 0
855, 6, T_Scon, T_Scon_DGRG, 422.4, hit, 2, 0
856, 6, T_Sinc, T_Sinc_UGRG, 421.9, hit, 2, 0
857, 6, T_Sinc, T_Sinc_UGRG, 385.3, hit, 2, 0
858, 6, T_Sinc, T_Sinc_UGRG, 364.7, hit, 2, 0
859, 6, T_Scon, T_Scon_URLR, 720.2, hit, 1, 0
860, 6, T_Sinc, T_Sinc_UGRG, 0.1, miss, 3482092, 1
861, 6, T_Sinc, T_Sinc_UGRG, 855.1, hit, 2, 0
862, 6, T_Scon, T_Scon_URLR, 346.6, hit, 1, 0
863, 6, T_Sinc, T_Sinc_UGRG, 409.9, hit, 2, 0
864, 6, T_Scon, T_Scon_DGRG, 405.4, hit, 2, 0
865, 7, T_Scon, T_Scon_URLR, 529.2, hit, 1, 0
866, 7, T_Sinc, T_Sinc_UGRG, 372.6, hit, 2, 0
867, 7, T_Sinc, T_Sinc_UGRG, 323.9, hit, 2, 0
868, 7, T_Sinc, T_Sinc_DRLR, 367.4, hit, 1, 0
869, 7, T_Scon, T_Scon_DGRG, 474.9, hit, 2, 0
870, 7, T_Scon, T_Scon_DGRG, 306.3, hit, 2, 0
871, 7, T_Sinc, T_Sinc_UGRG, 285.7, hit, 2, 0
872, 7, T_Scon, T_Scon_DGRG, 293.1, hit, 2, 0
873, 7, T_Sinc, T_Sinc_DRLR, 344.6, hit, 1, 0
874, 7, T_Sinc, T_Sinc_DRLR, 296.0, hit, 1, 0
875, 7, T_Sinc, T_Sinc_DRLR, 327.4, hit, 1, 0
876, 7, T_Scon, T_Scon_DGRG, 410.9, hit, 2, 0
877, 7, T_Scon, T_Scon_DGRG, 342.4, hit, 2, 0
878, 7, T_Scon, T_Scon_URLR, 345.7, hit, 1, 0
879, 7, T_Sinc, T_Sinc_UGRG, 317.2, incorrect, 1, 1
880, 7, T_Scon, T_Scon_DGRG, 380.7, hit, 2, 0
881, 7, T_Sinc, T_Sinc_UGRG, 384.1, hit, 2, 0
882, 7, T_Sinc, T_Sinc_UGRG, 419.5, hit, 2, 0
883, 7, T_Scon, T_Scon_URLR, 350.9, hit, 1, 0
884, 7, T_Scon, T_Scon_URLR, 386.4, hit, 1, 0
885, 7, T_Scon, T_Scon_URLR, 389.8, hit, 1, 0
886, 7, T_Scon, T_Scon_DGRG, 353.2, hit, 2, 0
887, 7, T_Scon, T_Scon_DGRG, 340.7, hit, 2, 0
888, 7, T_Sinc, T_Sinc_UGRG, 476.2, hit, 2, 0
889, 7, T_Scon, T_Scon_URLR, 335.5, hit, 1, 0
890, 7, T_Sinc, T_Sinc_DRLR, 359.0, hit, 1, 0
891, 7, T_Scon, T_Scon_DGRG, 262.5, hit, 2, 0
892, 7, T_Sinc, T_Sinc_DRLR, 345.8, hit, 1, 0
893, 7, T_Sinc, T_Sinc_UGRG, 385.3, hit, 2, 0
894, 7, T_Scon, T_Scon_URLR, 332.8, hit, 1, 0
895, 7, T_Sinc, T_Sinc_DRLR, 488.2, hit, 1, 0
896, 7, T_Sinc, T_Sinc_UGRG, 339.6, hit, 2, 0
897, 7, T_Sinc, T_Sinc_UGRG, 463.1, hit, 2, 0
898, 7, T_Scon, T_Scon_URLR, 350.5, hit, 1, 0
899, 7, T_Sinc, T_Sinc_UGRG, 353.9, hit, 2, 0
900, 7, T_Scon, T_Scon_DGRG, 325.3, hit, 2, 0
901, 7, T_Scon, T_Scon_DGRG, 796.6, hit, 2, 0
902, 7, T_Sinc, T_Sinc_UGRG, 451.9, hit, 2, 0
903, 7, T_Scon, T_Scon_URLR, 431.4, hit, 1, 0
904, 7, T_Sinc, T_Sinc_DRLR, 378.8, hit, 1, 0
905, 7, T_Scon, T_Scon_URLR, 374.3, hit, 1, 0
906, 7, T_Sinc, T_Sinc_DRLR, 353.7, hit, 1, 0
907, 7, T_Sinc, T_Sinc_DRLR, 309.1, hit, 1, 0
908, 7, T_Sinc, T_Sinc_UGRG, 572.6, hit, 2, 0
909, 7, T_Scon, T_Scon_URLR, 300.0, hit, 1, 0
910, 7, T_Scon, T_Scon_URLR, 311.4, hit, 1, 0
911, 7, T_Sinc, T_Sinc_DRLR, 306.9, hit, 1, 0
912, 7, T_Sinc, T_Sinc_DRLR, 282.4, hit, 1, 0
913, 7, T_Sinc, T_Sinc_DRLR, 309.7, hit, 1, 0
914, 7, T_Scon, T_Scon_DGRG, 793.2, hit, 2, 0
915, 7, T_Sinc, T_Sinc_DRLR, 320.7, hit, 1, 0
916, 7, T_Scon, T_Scon_URLR, 364.1, hit, 1, 0
917, 7, T_Scon, T_Scon_URLR, 303.5, hit, 1, 0
918, 7, T_Scon, T_Scon_DGRG, 390.9, hit, 2, 0
919, 7, T_Scon, T_Scon_DGRG, 378.4, hit, 2, 0
920, 7, T_Scon, T_Scon_DGRG, 341.9, hit, 2, 0
921, 7, T_Scon, T_Scon_DGRG, 345.3, hit, 2, 0
922, 7, T_Sinc, T_Sinc_UGRG, 356.7, hit, 2, 0
923, 7, T_Sinc, T_Sinc_UGRG, 352.2, hit, 2, 0
924, 7, T_Sinc, T_Sinc_DRLR, 359.5, hit, 1, 0
925, 7, T_Scon, T_Scon_URLR, 379.0, hit, 1, 0
926, 7, T_Sinc, T_Sinc_UGRG, 694.5, hit, 2, 0
927, 7, T_Sinc, T_Sinc_DRLR, 997.9, hit, 1, 0
928, 7, T_Sinc, T_Sinc_DRLR, 1505.2, hit, 1, 2
929, 7, T_Scon, T_Scon_URLR, 752.7, hit, 1, 0
930, 7, T_Sinc, T_Sinc_DRLR, 0.1, miss, 1600889, 1
931, 7, T_Scon, T_Scon_URLR, 323.7, hit, 1, 0
932, 7, T_Sinc, T_Sinc_DRLR, 307.0, hit, 1, 0
933, 7, T_Scon, T_Scon_URLR, 318.5, hit, 1, 0
934, 7, T_Sinc, T_Sinc_DRLR, 294.0, hit, 1, 0
935, 7, T_Scon, T_Scon_URLR, 313.4, hit, 1, 0
936, 7, T_Sinc, T_Sinc_DRLR, 284.8, hit, 1, 0
937, 7, T_Sinc, T_Sinc_DRLR, 548.0, hit, 1, 0
938, 7, T_Scon, T_Scon_DGRG, 351.5, hit, 2, 0
939, 7, T_Scon, T_Scon_URLR, 386.8, hit, 1, 0
940, 7, T_Scon, T_Scon_URLR, 342.3, hit, 1, 0
941, 7, T_Scon, T_Scon_URLR, 313.8, hit, 1, 0
942, 7, T_Sinc, T_Sinc_DRLR, 309.1, hit, 1, 0
943, 7, T_Sinc, T_Sinc_UGRG, 396.6, hit, 2, 0
944, 7, T_Scon, T_Scon_URLR, 332.1, hit, 1, 0
945, 7, T_Scon, T_Scon_URLR, 327.4, hit, 1, 0
946, 7, T_Scon, T_Scon_URLR, 354.9, hit, 1, 0
947, 7, T_Scon, T_Scon_URLR, 422.3, hit, 1, 0
948, 7, T_Scon, T_Scon_URLR, 677.8, hit, 1, 0
949, 7, T_Sinc, T_Sinc_DRLR, 513.2, hit, 1, 0
950, 7, T_Scon, T_Scon_URLR, 588.6, hit, 1, 0
951, 7, T_Scon, T_Scon_DGRG, 520.1, hit, 2, 0
952, 7, T_Sinc, T_Sinc_UGRG, 0.1, miss, 2244845, 1
953, 7, T_Sinc, T_Sinc_DRLR, 838.9, hit, 1, 0
954, 7, T_Sinc, T_Sinc_DRLR, 306.4, hit, 1, 0
955, 7, T_Scon, T_Scon_URLR, 333.9, hit, 1, 0
956, 7, T_Sinc, T_Sinc_UGRG, 485.2, hit, 2, 0
957, 7, T_Sinc, T_Sinc_UGRG, 424.7, hit, 2, 0
958, 7, T_Sinc, T_Sinc_UGRG, 312.1, hit, 2, 0
959, 7, T_Scon, T_Scon_DGRG, 391.6, hit, 2, 0
960, 7, T_Scon, T_Scon_DGRG, 331.0, hit, 2, 0
961, 7, T_Sinc, T_Sinc_UGRG, 386.4, hit, 2, 0
962, 7, T_Scon, T_Scon_DGRG, 341.9, hit, 2, 0
963, 7, T_Sinc, T_Sinc_DRLR, 357.4, hit, 1, 0
964, 7, T_Sinc, T_Sinc_UGRG, 352.7, hit, 2, 0
965, 7, T_Sinc, T_Sinc_UGRG, 348.2, hit, 2, 0
966, 7, T_Scon, T_Scon_DGRG, 295.7, hit, 2, 0
967, 7, T_Sinc, T_Sinc_DRLR, 351.1, hit, 1, 0
968, 7, T_Sinc, T_Sinc_DRLR, 434.5, hit, 1, 0
969, 7, T_Scon, T_Scon_DGRG, 334.0, hit, 2, 0
970, 7, T_Scon, T_Scon_DGRG, 269.4, hit, 2, 0
971, 7, T_Sinc, T_Sinc_DRLR, 336.8, hit, 1, 0
972, 7, T_Scon, T_Scon_URLR, 380.2, hit, 1, 0
973, 7, T_Sinc, T_Sinc_UGRG, 991.5, hit, 2, 0
974, 7, T_Sinc, T_Sinc_DRLR, 778.9, hit, 1, 0
975, 7, T_Sinc, T_Sinc_UGRG, 506.3, hit, 2, 0
976, 7, T_Scon, T_Scon_DGRG, 325.7, hit, 2, 0
977, 7, T_Scon, T_Scon_DGRG, 325.2, hit, 2, 0
978, 7, T_Scon, T_Scon_URLR, 340.6, hit, 1, 0
979, 7, T_Scon, T_Scon_DGRG, 344.0, hit, 2, 0
980, 7, T_Sinc, T_Sinc_UGRG, 299.5, hit, 2, 0
981, 7, T_Scon, T_Scon_URLR, 303.0, hit, 1, 0
982, 7, T_Sinc, T_Sinc_UGRG, 386.3, hit, 2, 0
983, 7, T_Sinc, T_Sinc_UGRG, 405.8, hit, 2, 0
984, 7, T_Sinc, T_Sinc_DRLR, 305.3, hit, 1, 0
985, 7, T_Sinc, T_Sinc_DRLR, 376.7, hit, 1, 0
986, 7, T_Scon, T_Scon_URLR, 348.1, hit, 1, 0
987, 7, T_Sinc, T_Sinc_DRLR, 391.5, hit, 1, 0
988, 7, T_Scon, T_Scon_DGRG, 351.0, hit, 2, 0
989, 7, T_Scon, T_Scon_DGRG, 366.4, hit, 2, 0
990, 7, T_Scon, T_Scon_DGRG, 349.8, hit, 2, 0
991, 7, T_Scon, T_Scon_DGRG, 305.3, hit, 2, 0
992, 7, T_Sinc, T_Sinc_UGRG, 316.8, hit, 2, 0
993, 7, T_Sinc, T_Sinc_UGRG, 284.1, hit, 2, 0
994, 7, T_Sinc, T_Sinc_UGRG, 367.6, hit, 2, 0
995, 7, T_Scon, T_Scon_DGRG, 363.1, hit, 2, 0
996, 7, T_Sinc, T_Sinc_DRLR, 302.4, hit, 1, 0
997, 7, T_Sinc, T_Sinc_UGRG, 781.9, hit, 2, 0
998, 7, T_Sinc, T_Sinc_UGRG, 0.1, miss, 3378766, 1
999, 7, T_Sinc, T_Sinc_UGRG, 820.8, hit, 2, 0
1000, 7, T_Scon, T_Scon_DGRG, 364.3, hit, 2, 0
1001, 7, T_Scon, T_Scon_URLR, 0.1, miss, 3440262, 1
1002, 7, T_Sinc, T_Sinc_DRLR, 431.1, hit, 1, 0
1003, 7, T_Sinc, T_Sinc_UGRG, 386.6, hit, 2, 0
1004, 7, T_Scon, T_Scon_DGRG, 234.0, hit, 2, 0
1005, 7, T_Scon, T_Scon_DGRG, 273.4, hit, 2, 0
1006, 7, T_Scon, T_Scon_URLR, 324.9, hit, 1, 0
1007, 7, T_Scon, T_Scon_URLR, 312.3, hit, 1, 0
1008, 7, T_Scon, T_Scon_DGRG, 259.8, hit, 2, 0
1009, 8, T_Sinc, T_Sinc_UGRG, 549.4, hit, 2, 0
1010, 8, T_Scon, T_Scon_DGRG, 360.8, hit, 2, 0
1011, 8, T_Sinc, T_Sinc_UGRG, 312.3, hit, 2, 0
1012, 8, T_Scon, T_Scon_DGRG, 299.8, hit, 2, 0
1013, 8, T_Scon, T_Scon_URLR, 343.1, hit, 1, 0
1014, 8, T_Scon, T_Scon_URLR, 350.5, hit, 1, 0
1015, 8, T_Sinc, T_Sinc_UGRG, 370.0, hit, 2, 0
1016, 8, T_Sinc, T_Sinc_DRLR, 357.5, hit, 1, 0
1017, 8, T_Scon, T_Scon_DGRG, 296.9, hit, 2, 0
1018, 8, T_Sinc, T_Sinc_DRLR, 468.3, hit, 1, 0
1019, 8, T_Scon, T_Scon_DGRG, 291.8, hit, 2, 0
1020, 8, T_Scon, T_Scon_URLR, 299.3, hit, 1, 0
1021, 8, T_Sinc, T_Sinc_UGRG, 382.6, hit, 2, 0
1022, 8, T_Sinc, T_Sinc_DRLR, 394.1, hit, 1, 0
1023, 8, T_Scon, T_Scon_DGRG, 301.5, hit, 2, 0
1024, 8, T_Sinc, T_Sinc_DRLR, 360.9, hit, 1, 0
1025, 8, T_Scon, T_Scon_DGRG, 436.4, hit, 2, 0
1026, 8, T_Sinc, T_Sinc_UGRG, 367.9, hit, 2, 0
1027, 8, T_Sinc, T_Sinc_DRLR, 379.2, hit, 1, 0
1028, 8, T_Sinc, T_Sinc_DRLR, 350.7, hit, 1, 0
1029, 8, T_Sinc, T_Sinc_UGRG, 402.1, hit, 2, 0
1030, 8, T_Sinc, T_Sinc_DRLR, 321.6, hit, 1, 0
1031, 8, T_Scon, T_Scon_DGRG, 589.0, hit, 2, 0
1032, 8, T_Scon, T_Scon_URLR, 320.4, hit, 1, 0
1033, 8, T_Scon, T_Scon_DGRG, 331.9, hit, 2, 0
1034, 8, T_Scon, T_Scon_DGRG, 335.3, hit, 2, 0
1035, 8, T_Sinc, T_Sinc_UGRG, 654.7, hit, 2, 0
1036, 8, T_Scon, T_Scon_DGRG, 1298.2, incorrect, 1, 1
1037, 8, T_Scon, T_Scon_DGRG, 933.6, incorrect, 1, 1
1038, 8, T_Scon, T_Scon_URLR, 465.0, hit, 1, 0
1039, 8, T_Scon, T_Scon_DGRG, 376.5, hit, 2, 0
1040, 8, T_Sinc, T_Sinc_UGRG, 563.9, hit, 2, 0
1041, 8, T_Sinc, T_Sinc_DRLR, 383.4, hit, 1, 0
1042, 8, T_Sinc, T_Sinc_UGRG, 474.8, hit, 2, 0
1043, 8, T_Sinc, T_Sinc_UGRG, 462.2, hit, 2, 0
1044, 8, T_Sinc, T_Sinc_UGRG, 409.7, hit, 2, 0
1045, 8, T_Sinc, T_Sinc_UGRG, 568.8, hit, 2, 0
1046, 8, T_Sinc, T_Sinc_DRLR, 396.3, hit, 1, 0
1047, 8, T_Sinc, T_Sinc_DRLR, 319.7, hit, 1, 0
1048, 8, T_Scon, T_Scon_URLR, 327.2, hit, 1, 0
1049, 8, T_Sinc, T_Sinc_UGRG, 338.5, hit, 2, 0
1050, 8, T_Scon, T_Scon_URLR, 330.0, hit, 1, 0
1051, 8, T_Sinc, T_Sinc_DRLR, 357.5, hit, 1, 0
1052, 8, T_Sinc, T_Sinc_DRLR, 380.9, hit, 1, 0
1053, 8, T_Scon, T_Scon_URLR, 308.3, hit, 1, 0
1054, 8, T_Sinc, T_Sinc_UGRG, 355.8, hit, 2, 0
1055, 8, T_Sinc, T_Sinc_DRLR, 323.2, hit, 1, 0
1056, 8, T_Scon, T_Scon_URLR, 346.7, hit, 1, 0
1057, 8, T_Sinc, T_Sinc_UGRG, 374.1, hit, 2, 0
1058, 8, T_Scon, T_Scon_URLR, 269.5, hit, 1, 0
1059, 8, T_Sinc, T_Sinc_UGRG, 401.0, hit, 2, 0
1060, 8, T_Scon, T_Scon_URLR, 340.4, hit, 1, 0
1061, 8, T_Sinc, T_Sinc_DRLR, 311.8, hit, 1, 0
1062, 8, T_Scon, T_Scon_URLR, 415.3, hit, 1, 0
1063, 8, T_Scon, T_Scon_URLR, 358.6, hit, 1, 0
1064, 8, T_Sinc, T_Sinc_DRLR, 306.1, hit, 1, 0
1065, 8, T_Sinc, T_Sinc_DRLR, 253.6, hit, 1, 0
1066, 8, T_Sinc, T_Sinc_DRLR, 265.0, hit, 1, 0
1067, 8, T_Scon, T_Scon_DGRG, 332.5, hit, 2, 0
1068, 8, T_Sinc, T_Sinc_UGRG, 423.9, hit, 2, 0
1069, 8, T_Scon, T_Scon_DGRG, 379.3, hit, 2, 0
1070, 8, T_Scon, T_Scon_URLR, 318.8, hit, 1, 0
1071, 8, T_Scon, T_Scon_URLR, 310.2, hit, 1, 0
1072, 8, T_Scon, T_Scon_URLR, 669.6, hit, 1, 0
1073, 8, T_Scon, T_Scon_URLR, 357.1, hit, 1, 0
1074, 8, T_Scon, T_Scon_DGRG, 368.6, hit, 2, 0
1075, 8, T_Scon, T_Scon_DGRG, 531.9, incorrect, 1, 1
1076, 8, T_Sinc, T_Sinc_DRLR, 343.4, hit, 1, 0
1077, 8, T_Scon, T_Scon_URLR, 358.9, hit, 1, 0
1078, 8, T_Scon, T_Scon_URLR, 326.3, hit, 1, 0
1079, 8, T_Scon, T_Scon_DGRG, 349.7, hit, 2, 0
1080, 8, T_Sinc, T_Sinc_UGRG, 405.2, hit, 2, 0
1081, 8, T_Scon, T_Scon_URLR, 588.3, hit, 1, 0
1082, 8, T_Sinc, T_Sinc_DRLR, 307.7, hit, 1, 0
1083, 8, T_Sinc, T_Sinc_DRLR, 359.2, hit, 1, 0
1084, 8, T_Scon, T_Scon_DGRG, 474.6, hit, 2, 0
1085, 8, T_Sinc, T_Sinc_DRLR, 290.0, hit, 1, 0
1086, 8, T_Scon, T_Scon_DGRG, 361.5, hit, 2, 0
1087, 8, T_Sinc, T_Sinc_UGRG, 300.9, hit, 2, 0
1088, 8, T_Sinc, T_Sinc_DRLR, 376.3, hit, 1, 0
1089, 8, T_Scon, T_Scon_DGRG, 275.8, hit, 2, 0
1090, 8, T_Sinc, T_Sinc_UGRG, 315.2, hit, 2, 0
1091, 8, T_Scon, T_Scon_URLR, 318.7, hit, 1, 0
1092, 8, T_Sinc, T_Sinc_UGRG, 482.1, hit, 2, 0
1093, 8, T_Scon, T_Scon_URLR, 269.5, hit, 1, 0
1094, 8, T_Scon, T_Scon_URLR, 337.0, hit, 1, 0
1095, 8, T_Scon, T_Scon_DGRG, 340.5, hit, 2, 0
1096, 8, T_Sinc, T_Sinc_UGRG, 351.8, hit, 2, 0
1097, 8, T_Scon, T_Scon_URLR, 295.3, hit, 1, 0
1098, 8, T_Sinc, T_Sinc_UGRG, 390.7, hit, 2, 0
1099, 8, T_Sinc, T_Sinc_DRLR, 386.2, hit, 1, 0
1100, 8, T_Sinc, T_Sinc_UGRG, 381.6, hit, 2, 0
1101, 8, T_Sinc, T_Sinc_DRLR, 457.0, hit, 1, 0
1102, 8, T_Sinc, T_Sinc_DRLR, 724.5, hit, 1, 0
1103, 8, T_Sinc, T_Sinc_DRLR, 867.9, hit, 1, 0
1104, 8, T_Sinc, T_Sinc_DRLR, 0.1, miss, 2389168, 1
1105, 8, T_Scon, T_Scon_DGRG, 254.8, incorrect, 1, 1
1106, 8, T_Sinc, T_Sinc_UGRG, 346.3, hit, 2, 0
1107, 8, T_Scon, T_Scon_DGRG, 373.6, hit, 2, 0
1108, 8, T_Sinc, T_Sinc_UGRG, 305.1, hit, 2, 0
1109, 8, T_Sinc, T_Sinc_DRLR, 332.6, hit, 1, 0
1110, 8, T_Scon, T_Scon_DGRG, 384.1, hit, 2, 0
1111, 8, T_Scon, T_Scon_DGRG, 339.5, hit, 2, 0
1112, 8, T_Scon, T_Scon_URLR, 342.8, hit, 1, 0
1113, 8, T_Sinc, T_Sinc_DRLR, 330.3, hit, 1, 0
1114, 8, T_Sinc, T_Sinc_UGRG, 333.8, incorrect, 1, 1
1115, 8, T_Scon, T_Scon_URLR, 373.2, hit, 1, 0
1116, 8, T_Scon, T_Scon_DGRG, 424.6, hit, 2, 0
1117, 8, T_Scon, T_Scon_URLR, 555.8, hit, 1, 0
1118, 8, T_Scon, T_Scon_DGRG, 391.2, hit, 2, 0
1119, 8, T_Scon, T_Scon_DGRG, 470.6, hit, 2, 0
1120, 8, T_Scon, T_Scon_DGRG, 642.1, hit, 2, 0
1121, 8, T_Sinc, T_Sinc_UGRG, 873.6, hit, 2, 0
1122, 8, T_Scon, T_Scon_DGRG, 0.1, miss, 2957462, 1
1123, 8, T_Scon, T_Scon_URLR, 0.1, miss, 2977627, 1
1124, 8, T_Sinc, T_Sinc_DRLR, 395.8, hit, 1, 0
1125, 8, T_Scon, T_Scon_DGRG, 379.3, hit, 2, 0
1126, 8, T_Sinc, T_Sinc_DRLR, 386.7, hit, 1, 0
1127, 8, T_Sinc, T_Sinc_UGRG, 410.1, hit, 2, 0
1128, 8, T_Scon, T_Scon_URLR, 317.6, hit, 1, 0
1129, 8, T_Sinc, T_Sinc_UGRG, 457.0, hit, 2, 0
1130, 8, T_Sinc, T_Sinc_DRLR, 292.4, hit, 1, 0
1131, 8, T_Scon, T_Scon_DGRG, 363.9, hit, 2, 0
1132, 8, T_Scon, T_Scon_URLR, 331.4, hit, 1, 0
1133, 8, T_Scon, T_Scon_DGRG, 390.7, hit, 2, 0
1134, 8, T_Scon, T_Scon_URLR, 354.2, hit, 1, 0
1135, 8, T_Scon, T_Scon_URLR, 317.7, hit, 1, 0
1136, 8, T_Scon, T_Scon_URLR, 293.1, hit, 1, 0
1137, 8, T_Sinc, T_Sinc_UGRG, 400.5, hit, 2, 0
1138, 8, T_Sinc, T_Sinc_UGRG, 0.1, miss, 3281106, 1
1139, 8, T_Scon, T_Scon_URLR, 407.4, hit, 1, 0
1140, 8, T_Sinc, T_Sinc_DRLR, 338.8, hit, 1, 0
1141, 8, T_Scon, T_Scon_DGRG, 1006.2, hit, 2, 2
1142, 8, T_Sinc, T_Sinc_UGRG, 0.2, miss, 3359767, 1
1143, 8, T_Sinc, T_Sinc_UGRG, 429.2, hit, 2, 0
1144, 8, T_Sinc, T_Sinc_UGRG, 0.1, miss, 3400098, 1
1145, 8, T_Sinc, T_Sinc_DRLR, 0.1, miss, 3420263, 1
1146, 8, T_Scon, T_Scon_URLR, 355.5, hit, 1, 0
1147, 8, T_Sinc, T_Sinc_DRLR, 291.0, hit, 1, 0
1148, 8, T_Sinc, T_Sinc_DRLR, 230.3, hit, 1, 0
1149, 8, T_Scon, T_Scon_URLR, 321.7, hit, 1, 0
1150, 8, T_Sinc, T_Sinc_UGRG, 369.2, hit, 2, 0
1151, 8, T_Scon, T_Scon_DGRG, 284.7, hit, 2, 0
1152, 8, T_Scon, T_Scon_DGRG, 256.1, incorrect, 1, 1
1153, 9, T_Sinc, T_Sinc_UGRG, 376.3, hit, 2, 0
1154, 9, T_Sinc, T_Sinc_UGRG, 315.7, hit, 2, 0
1155, 9, T_Sinc, T_Sinc_UGRG, 295.1, hit, 2, 0
1156, 9, T_Sinc, T_Sinc_DRLR, 350.6, hit, 1, 0
1157, 9, T_Sinc, T_Sinc_UGRG, 346.0, hit, 2, 0
1158, 9, T_Scon, T_Scon_DGRG, 385.5, hit, 2, 0
1159, 9, T_Sinc, T_Sinc_UGRG, 300.9, hit, 2, 0
1160, 9, T_Scon, T_Scon_URLR, 320.3, hit, 1, 0
1161, 9, T_Sinc, T_Sinc_UGRG, 371.7, hit, 2, 0
1162, 9, T_Scon, T_Scon_URLR, 335.2, hit, 1, 0
1163, 9, T_Scon, T_Scon_URLR, 350.6, hit, 1, 0
1164, 9, T_Scon, T_Scon_URLR, 278.0, hit, 1, 0
1165, 9, T_Scon, T_Scon_URLR, 297.5, hit, 1, 0
1166, 9, T_Sinc, T_Sinc_DRLR, 316.9, hit, 1, 0
1167, 9, T_Sinc, T_Sinc_UGRG, 416.4, hit, 2, 0
1168, 9, T_Scon, T_Scon_URLR, 363.8, hit, 1, 0
1169, 9, T_Scon, T_Scon_DGRG, 375.2, hit, 2, 0
1170, 9, T_Sinc, T_Sinc_DRLR, 346.7, hit, 1, 0
1171, 9, T_Scon, T_Scon_DGRG, 494.1, hit, 2, 0
1172, 9, T_Scon, T_Scon_URLR, 281.5, hit, 1, 0
1173, 9, T_Sinc, T_Sinc_DRLR, 437.0, hit, 1, 0
1174, 9, T_Scon, T_Scon_DGRG, 288.5, hit, 2, 0
1175, 9, T_Scon, T_Scon_DGRG, 331.8, hit, 2, 0
1176, 9, T_Scon, T_Scon_DGRG, 371.3, incorrect, 1, 1
1177, 9, T_Sinc, T_Sinc_UGRG, 302.8, hit, 2, 0
1178, 9, T_Scon, T_Scon_URLR, 342.2, hit, 1, 0
1179, 9, T_Sinc, T_Sinc_UGRG, 433.6, hit, 2, 0
1180, 9, T_Sinc, T_Sinc_UGRG, 377.0, hit, 2, 0
1181, 9, T_Sinc, T_Sinc_DRLR, 344.5, hit, 1, 0
1182, 9, T_Scon, T_Scon_URLR, 468.0, hit, 1, 0
1183, 9, T_Sinc, T_Sinc_UGRG, 831.3, hit, 2, 0
1184, 9, T_Sinc, T_Sinc_DRLR, 762.8, hit, 1, 0
1185, 9, T_Scon, T_Scon_URLR, 410.2, hit, 1, 0
1186, 9, T_Sinc, T_Sinc_UGRG, 405.6, hit, 2, 0
1187, 9, T_Scon, T_Scon_DGRG, 313.1, hit, 2, 0
1188, 9, T_Scon, T_Scon_URLR, 320.6, hit, 1, 0
1189, 9, T_Sinc, T_Sinc_DRLR, 427.7, hit, 1, 0
1190, 9, T_Sinc, T_Sinc_UGRG, 459.1, hit, 2, 0
1191, 9, T_Scon, T_Scon_DGRG, 450.6, hit, 2, 0
1192, 9, T_Scon, T_Scon_DGRG, 505.9, hit, 2, 0
1193, 9, T_Scon, T_Scon_URLR, 445.4, hit, 1, 0
1194, 9, T_Scon, T_Scon_URLR, 312.9, hit, 1, 0
1195, 9, T_Sinc, T_Sinc_UGRG, 420.4, hit, 2, 0
1196, 9, T_Scon, T_Scon_DGRG, 487.8, hit, 2, 0
1197, 9, T_Scon, T_Scon_DGRG, 343.2, hit, 2, 0
1198, 9, T_Sinc, T_Sinc_DRLR, 370.7, hit, 1, 0
1199, 9, T_Sinc, T_Sinc_UGRG, 426.1, hit, 2, 0
1200, 9, T_Sinc, T_Sinc_DRLR, 533.5, hit, 1, 0
1201, 9, T_Scon, T_Scon_URLR, 344.9, hit, 1, 0
1202, 9, T_Sinc, T_Sinc_DRLR, 364.4, hit, 1, 0
1203, 9, T_Scon, T_Scon_URLR, 435.9, hit, 1, 0
1204, 9, T_Sinc, T_Sinc_UGRG, 1303.2, hit, 2, 2
1205, 9, T_Sinc, T_Sinc_UGRG, 514.7, hit, 2, 0
1206, 9, T_Scon, T_Scon_URLR, 582.1, hit, 1, 0
1207, 9, T_Scon, T_Scon_URLR, 441.6, hit, 1, 0
1208, 9, T_Sinc, T_Sinc_UGRG, 421.1, hit, 2, 0
1209, 9, T_Sinc, T_Sinc_UGRG, 472.4, hit, 2, 0
1210, 9, T_Scon, T_Scon_DGRG, 515.9, hit, 2, 0
1211, 9, T_Scon, T_Scon_DGRG, 367.4, hit, 2, 0
1212, 9, T_Scon, T_Scon_DGRG, 318.7, hit, 2, 0
1213, 9, T_Sinc, T_Sinc_UGRG, 402.2, hit, 2, 0
1214, 9, T_Sinc, T_Sinc_UGRG, 365.7, hit, 2, 0
1215, 9, T_Scon, T_Scon_URLR, 589.1, hit, 1, 0
1216, 9, T_Sinc, T_Sinc_DRLR, 376.5, hit, 1, 0
1217, 9, T_Sinc, T_Sinc_DRLR, 520.0, hit, 1, 0
1218, 9, T_Scon, T_Scon_DGRG, 403.4, hit, 2, 0
1219, 9, T_Sinc, T_Sinc_UGRG, 526.9, hit, 2, 0
1220, 9, T_Sinc, T_Sinc_DRLR, 530.2, hit, 1, 0
1221, 9, T_Sinc, T_Sinc_DRLR, 289.7, hit, 1, 0
1222, 9, T_Sinc, T_Sinc_UGRG, 477.2, hit, 2, 0
1223, 9, T_Sinc, T_Sinc_UGRG, 408.6, hit, 2, 0
1224, 9, T_Scon, T_Scon_DGRG, 432.0, hit, 2, 0
1225, 9, T_Sinc, T_Sinc_DRLR, 1071.2, hit, 1, 2
1226, 9, T_Scon, T_Scon_DGRG, 370.7, hit, 2, 0
1227, 9, T_Scon, T_Scon_DGRG, 266.0, hit, 2, 0
1228, 9, T_Sinc, T_Sinc_DRLR, 389.5, hit, 1, 0
1229, 9, T_Sinc, T_Sinc_DRLR, 328.9, hit, 1, 0
1230, 9, T_Scon, T_Scon_URLR, 388.5, hit, 1, 0
1231, 9, T_Scon, T_Scon_URLR, 399.8, hit, 1, 0
1232, 9, T_Scon, T_Scon_DGRG, 423.2, hit, 2, 0
1233, 9, T_Scon, T_Scon_DGRG, 294.7, hit, 2, 0
1234, 9, T_Sinc, T_Sinc_UGRG, 506.1, hit, 2, 0
1235, 9, T_Sinc, T_Sinc_UGRG, 289.6, hit, 2, 0
1236, 9, T_Scon, T_Scon_DGRG, 361.0, hit, 2, 0
1237, 9, T_Sinc, T_Sinc_UGRG, 332.5, hit, 2, 0
1238, 9, T_Sinc, T_Sinc_DRLR, 411.8, hit, 1, 0
1239, 9, T_Scon, T_Scon_DGRG, 451.3, hit, 2, 0
1240, 9, T_Scon, T_Scon_DGRG, 278.7, hit, 2, 0
1241, 9, T_Scon, T_Scon_URLR, 362.2, hit, 1, 0
1242, 9, T_Sinc, T_Sinc_DRLR, 405.6, hit, 1, 0
1243, 9, T_Sinc, T_Sinc_DRLR, 381.0, hit, 1, 0
1244, 9, T_Scon, T_Scon_DGRG, 372.5, hit, 2, 0
1245, 9, T_Scon, T_Scon_URLR, 371.9, hit, 1, 0
1246, 9, T_Sinc, T_Sinc_DRLR, 355.3, hit, 1, 0
1247, 9, T_Sinc, T_Sinc_UGRG, 426.8, hit, 2, 0
1248, 9, T_Sinc, T_Sinc_UGRG, 318.3, hit, 2, 0
1249, 9, T_Scon, T_Scon_DGRG, 349.6, hit, 2, 0
1250, 9, T_Sinc, T_Sinc_UGRG, 313.1, hit, 2, 0
1251, 9, T_Scon, T_Scon_URLR, 356.6, hit, 1, 0
1252, 9, T_Scon, T_Scon_URLR, 287.9, hit, 1, 0
1253, 9, T_Sinc, T_Sinc_UGRG, 383.4, hit, 2, 0
1254, 9, T_Sinc, T_Sinc_UGRG, 318.9, hit, 2, 0
1255, 9, T_Sinc, T_Sinc_DRLR, 378.3, hit, 1, 0
1256, 9, T_Sinc, T_Sinc_DRLR, 477.8, hit, 1, 0
1257, 9, T_Sinc, T_Sinc_UGRG, 353.2, hit, 2, 0
1258, 9, T_Sinc, T_Sinc_DRLR, 348.6, hit, 1, 0
1259, 9, T_Sinc, T_Sinc_DRLR, 368.1, hit, 1, 0
1260, 9, T_Sinc, T_Sinc_DRLR, 311.5, hit, 1, 0
1261, 9, T_Sinc, T_Sinc_DRLR, 1158.7, hit, 1, 2
1262, 9, T_Sinc, T_Sinc_DRLR, 346.0, hit, 1, 0
1263, 9, T_Sinc, T_Sinc_DRLR, 301.5, hit, 1, 0
1264, 9, T_Scon, T_Scon_DGRG, 429.0, hit, 2, 0
1265, 9, T_Scon, T_Scon_DGRG, 284.4, hit, 2, 0
1266, 9, T_Scon, T_Scon_DGRG, 275.8, hit, 2, 0
1267, 9, T_Scon, T_Scon_URLR, 407.2, hit, 1, 0
1268, 9, T_Scon, T_Scon_DGRG, 306.7, hit, 2, 0
1269, 9, T_Sinc, T_Sinc_UGRG, 298.2, hit, 2, 0
1270, 9, T_Sinc, T_Sinc_DRLR, 377.5, hit, 1, 0
1271, 9, T_Sinc, T_Sinc_DRLR, 409.0, hit, 1, 0
1272, 9, T_Scon, T_Scon_URLR, 412.4, hit, 1, 0
1273, 9, T_Sinc, T_Sinc_DRLR, 551.9, hit, 1, 0
1274, 9, T_Scon, T_Scon_URLR, 507.3, hit, 1, 0
1275, 9, T_Scon, T_Scon_DGRG, 846.7, hit, 2, 0
1276, 9, T_Scon, T_Scon_URLR, 0.1, miss, 3175280, 1
1277, 9, T_Scon, T_Scon_DGRG, 0.2, miss, 3194445, 1
1278, 9, T_Scon, T_Scon_DGRG, 445.0, hit, 2, 0
1279, 9, T_Scon, T_Scon_URLR, 368.5, hit, 1, 0
1280, 9, T_Sinc, T_Sinc_DRLR, 372.0, hit, 1, 0
1281, 9, T_Sinc, T_Sinc_UGRG, 383.3, hit, 2, 0
1282, 9, T_Sinc, T_Sinc_UGRG, 322.8, hit, 2, 0
1283, 9, T_Scon, T_Scon_URLR, 334.3, hit, 1, 0
1284, 9, T_Scon, T_Scon_DGRG, 401.7, hit, 2, 0
1285, 9, T_Scon, T_Scon_URLR, 389.1, hit, 1, 0
1286, 9, T_Scon, T_Scon_URLR, 300.6, hit, 1, 0
1287, 9, T_Sinc, T_Sinc_DRLR, 392.0, hit, 1, 0
1288, 9, T_Scon, T_Scon_DGRG, 415.5, hit, 2, 0
1289, 9, T_Scon, T_Scon_URLR, 338.9, hit, 1, 0
1290, 9, T_Scon, T_Scon_URLR, 326.3, hit, 1, 0
1291, 9, T_Sinc, T_Sinc_DRLR, 357.8, hit, 1, 0
1292, 9, T_Scon, T_Scon_URLR, 297.1, hit, 1, 0
1293, 9, T_Scon, T_Scon_DGRG, 380.6, hit, 2, 0
1294, 9, T_Scon, T_Scon_URLR, 336.1, hit, 1, 0
1295, 9, T_Sinc, T_Sinc_DRLR, 347.4, hit, 1, 0
1296, 9, T_Scon, T_Scon_DGRG, 454.9, hit, 2, 0
