trial_index, block, condition, full_condition_code, RT, response_type, response_key, error_outlier
1,1, T_Scon, T_Scon_DRRR,419.1, hit,2,0
2,1, T_Scon, T_Scon_UGLG,370.6, hit,1,0
3,1, T_Scon, T_Scon_DRRR,366, hit,2,0
4,1, T_Scon, T_Scon_DRRR,425.4, hit,2,0
5,1, T_Sinc, T_Sinc_URRR,428.9, hit,2,0
6,1, T_Scon, T_Scon_DRRR,376.3, hit,2,0
7,1, T_Scon, T_Scon_UGLG,371.8, hit,1,0
8,1, T_Scon, T_Scon_DRRR,411.2, hit,2,0
9,1, T_Sinc, T_Sinc_DGLG,430.7, hit,1,0
10,1, T_Scon, T_Scon_UGLG,414.1, hit,1,0
11,1, T_Scon, T_Scon_DRRR,293.5, hit,2,0
12,1, T_Scon, T_Scon_UGLG,385, hit,1,0
13,1, T_Scon, T_Scon_DRRR,472.4, hit,2,0
14,1, T_Sinc, T_Sinc_URRR,523.8, hit,2,0
15,1, T_Sinc, T_Sinc_URRR,431.3, hit,2,0
16,1, T_Sinc, T_Sinc_DGLG,322.6, hit,1,0
17,1, T_Scon, T_Scon_UGLG,390.1, hit,1,0
18,1, T_Scon, T_Scon_DRRR,377.6, hit,2,0
19,1, T_Sinc, T_Sinc_DGLG,468.9, hit,1,0
20,1, T_Scon, T_Scon_DRRR,428.4, hit,2,0
21,1, T_Scon, T_Scon_DRRR,379.9, hit,2,0
22,1, T_Sinc, T_Sinc_URRR,431.3, hit,2,0
23,1, T_Scon, T_Scon_DRRR,346.7, hit,2,0
24,1, T_Scon, T_Scon_DRRR,358.2, hit,2,0
25,1, T_Scon, T_Scon_UGLG,393.6, hit,1,0
26,1, T_Scon, T_Scon_UGLG,445, hit,1,0
27,1, T_Sinc, T_Sinc_URRR,400.4, hit,2,0
28,1, T_Scon, T_Scon_UGLG,395.9, hit,1,0
29,1, T_Scon, T_Scon_UGLG,323.4, hit,1,0
30,1, T_Scon, T_Scon_UGLG,326.7, hit,1,0
31,1, T_Sinc, T_Sinc_URRR,410.2, hit,2,0
32,1, T_Sinc, T_Sinc_URRR,353.7, hit,2,0
33,1, T_Scon, T_Scon_DRRR,425, hit,2,0
34,1, T_Scon, T_Scon_UGLG,368.5, hit,1,0
35,1, T_Scon, T_Scon_UGLG,339.9, hit,1,0
36,1, T_Scon, T_Scon_DRRR,407.4, hit,2,0
37,1, T_Scon, T_Scon_DRRR,486.6, hit,2,0
38,1, T_Scon, T_Scon_UGLG,362, hit,1,0
39,1, T_Scon, T_Scon_UGLG,381.3, hit,1,0
40,1, T_Scon, T_Scon_UGLG,336.8, hit,1,0
41,1, T_Scon, T_Scon_UGLG,300.3, hit,1,0
42,1, T_Scon, T_Scon_UGLG,343.7, hit,1,0
43,1, T_Sinc, T_Sinc_DGLG,399.1, hit,1,0
44,1, T_Sinc, T_Sinc_DGLG,410.6, hit,1,0
45,1, T_Sinc, T_Sinc_DGLG,338, hit,1,0
46,1, T_Sinc, T_Sinc_URRR,365.5, hit,2,0
47,1, T_Scon, T_Scon_UGLG,420.9, hit,1,0
48,1, T_Scon, T_Scon_UGLG,344.3, hit,1,0
49,1, T_Sinc, T_Sinc_URRR,771.8, hit,2,0
50,1, T_Scon, T_Scon_UGLG,415.1, hit,1,0
51,1, T_Scon, T_Scon_UGLG,322.6, hit,1,0
52,1, T_Scon, T_Scon_DRRR,410.1, hit,2,0
53,1, T_Scon, T_Scon_UGLG,413.5, hit,1,0
54,1, T_Scon, T_Scon_DRRR,400.9, hit,2,0
55,1, T_Scon, T_Scon_DRRR,436.4, hit,2,0
56,1, T_Scon, T_Scon_UGLG,359.9, hit,1,0
57,1, T_Scon, T_Scon_DRRR,367.2, hit,2,0
58,1, T_Scon, T_Scon_DRRR,382.7, hit,2,0
59,1, T_Scon, T_Scon_UGLG,406.2, hit,1,0
60,1, T_Scon, T_Scon_DRRR,373.5, hit,2,0
61,1, T_Sinc, T_Sinc_DGLG,377, hit,1,0
62,1, T_Sinc, T_Sinc_URRR,432.3, hit,2,0
63,1, T_Scon, T_Scon_DRRR,415.8, hit,2,0
64,1, T_Scon, T_Scon_DRRR,363.3, hit,2,0
65,1, T_Scon, T_Scon_DRRR,426.8, hit,2,0
66,1, T_Scon, T_Scon_UGLG,322.1, hit,1,0
67,1, T_Scon, T_Scon_DRRR,357.6, hit,2,0
68,1, T_Scon, T_Scon_DRRR,369.1, hit,2,0
69,1, T_Scon, T_Scon_UGLG,396.4, hit,1,0
70,1, T_Scon, T_Scon_DRRR,503.9, hit,2,0
71,1, T_Scon, T_Scon_DRRR,347.4, hit,2,0
72,1, T_Sinc, T_Sinc_URRR,370.8, hit,2,0
73,1, T_Scon, T_Scon_DRRR,426, hit,2,0
74,1, T_Scon, T_Scon_DRRR,373.4, hit,2,0
75,1, T_Scon, T_Scon_UGLG,428.8, hit,1,0
76,1, T_Scon, T_Scon_DRRR,424.2, hit,2,0
77,1, T_Scon, T_Scon_UGLG,359.7, hit,1,0
78,1, T_Scon, T_Scon_UGLG,355.2, hit,1,0
79,1, T_Sinc, T_Sinc_DGLG,382.5, hit,1,0
80,1, T_Scon, T_Scon_DRRR,370, hit,2,0
81,1, T_Scon, T_Scon_UGLG,341.5, hit,1,0
82,1, T_Scon, T_Scon_UGLG,440.9, hit,1,0
83,1, T_Scon, T_Scon_UGLG,320.3, hit,1,0
84,1, T_Sinc, T_Sinc_DGLG,459.7, hit,1,0
85,1, T_Scon, T_Scon_DRRR,463.2, hit,2,0
86,1, T_Scon, T_Scon_DRRR,410.6, hit,2,0
87,1, T_Scon, T_Scon_UGLG,406, hit,1,0
88,1, T_Scon, T_Scon_DRRR,469.5, hit,2,0
89,1, T_Scon, T_Scon_DRRR,520.9, hit,2,0
90,1, T_Sinc, T_Sinc_DGLG,452.3, hit,1,0
91,1, T_Scon, T_Scon_DRRR,467.8, hit,2,0
92,1, T_Scon, T_Scon_DRRR,399.3, hit,2,0
93,1, T_Sinc, T_Sinc_DGLG,362.6, hit,1,0
94,1, T_Scon, T_Scon_UGLG,366.1, hit,1,0
95,1, T_Scon, T_Scon_DRRR,409.6, hit,2,0
96,1, T_Scon, T_Scon_UGLG,381, hit,1,0
97,1, T_Scon, T_Scon_UGLG,348.4, hit,1,0
98,1, T_Scon, T_Scon_DRRR,399.9, hit,2,0
99,1, T_Scon, T_Scon_UGLG,479.3, hit,1,0
100,1, T_Scon, T_Scon_UGLG,362.7, hit,1,0
101,1, T_Scon, T_Scon_DRRR,370.2, hit,2,0
102,1, T_Scon, T_Scon_UGLG,389.7, hit,1,0
103,1, T_Sinc, T_Sinc_URRR,333, hit,2,0
104,1, T_Sinc, T_Sinc_URRR,392.5, hit,2,0
105,1, T_Scon, T_Scon_UGLG,372, hit,1,0
106,1, T_Sinc, T_Sinc_DGLG,383.4, hit,1,0
107,1, T_Scon, T_Scon_DRRR,450.8, hit,2,0
108,1, T_Scon, T_Scon_UGLG,386.3, hit,1,0
109,1, T_Scon, T_Scon_DRRR,373.4, hit,2,0
110,1, T_Scon, T_Scon_DRRR,292.8, hit,2,0
111,1, T_Scon, T_Scon_DRRR,384.3, hit,2,0
112,1, T_Sinc, T_Sinc_URRR,367.7, hit,2,0
113,1, T_Scon, T_Scon_UGLG,395.1, hit,1,0
114,1, T_Scon, T_Scon_DRRR,558.6, hit,2,0
115,1, T_Scon, T_Scon_UGLG,466, hit,1,0
116,1, T_Sinc, T_Sinc_DGLG,421.4, hit,1,0
117,1, T_Sinc, T_Sinc_DGLG,376.9, hit,1,0
118,1, T_Sinc, T_Sinc_DGLG,316.4, hit,1,0
119,1, T_Scon, T_Scon_UGLG,387.7, hit,1,0
120,1, T_Scon, T_Scon_UGLG,391.2, hit,1,0
121,1, T_Sinc, T_Sinc_DGLG,450.7, hit,1,0
122,1, T_Sinc, T_Sinc_DGLG,322.1, hit,1,0
123,1, T_Scon, T_Scon_DRRR,441.5, hit,2,0
124,1, T_Scon, T_Scon_UGLG,397, hit,1,0
125,1, T_Sinc, T_Sinc_URRR,412.4, incorrect,1,1
126,1, T_Sinc, T_Sinc_URRR,715.8, hit,2,0
127,1, T_Scon, T_Scon_DRRR,415.3, hit,2,0
128,1, T_Scon, T_Scon_UGLG,438.7, hit,1,0
129,1, T_Sinc, T_Sinc_DGLG,478.1, hit,1,0
130,1, T_Sinc, T_Sinc_URRR,409.6, hit,2,0
131,1, T_Sinc, T_Sinc_URRR,365, hit,2,0
132,1, T_Scon, T_Scon_DRRR,384.4, hit,2,0
133,1, T_Scon, T_Scon_UGLG,387.9, hit,1,0
134,1, T_Scon, T_Scon_DRRR,419.4, hit,2,0
135,1, T_Scon, T_Scon_UGLG,446.8, hit,1,0
136,1, T_Scon, T_Scon_DRRR,518.2, hit,2,0
137,1, T_Scon, T_Scon_UGLG,381.7, hit,1,0
138,1, T_Scon, T_Scon_DRRR,345.1, hit,2,0
139,1, T_Scon, T_Scon_UGLG,428.5, hit,1,0
140,1, T_Scon, T_Scon_DRRR,343.9, hit,2,0
141,1, T_Scon, T_Scon_UGLG,427.4, hit,1,0
142,1, T_Scon, T_Scon_UGLG,454.8, hit,1,0
143,1, T_Scon, T_Scon_DRRR,406.3, hit,2,0
144,1, T_Scon, T_Scon_UGLG,481.7, hit,1,0
145,2, T_Scon, T_Scon_UGLG,526.5, hit,1,0
146,2, T_Sinc, T_Sinc_URRR,965.9, hit,2,2
147,2, T_Sinc, T_Sinc_URRR,745.3, hit,2,0
148,2, T_Scon, T_Scon_UGLG,376.7, incorrect,2,1
149,2, T_Scon, T_Scon_DRRR,484.3, hit,2,0
150,2, T_Scon, T_Scon_DRRR,455.6, hit,2,0
151,2, T_Sinc, T_Sinc_DGLG,415.1, hit,1,0
152,2, T_Sinc, T_Sinc_URRR,470.5, hit,2,0
153,2, T_Scon, T_Scon_UGLG,413.9, hit,1,0
154,2, T_Scon, T_Scon_DRRR,457.4, hit,2,0
155,2, T_Scon, T_Scon_DRRR,400.9, hit,2,0
156,2, T_Scon, T_Scon_UGLG,452.2, hit,1,0
157,2, T_Scon, T_Scon_UGLG,419.7, hit,1,0
158,2, T_Scon, T_Scon_DRRR,451.1, hit,2,0
159,2, T_Scon, T_Scon_DRRR,414.5, hit,2,0
160,2, T_Sinc, T_Sinc_DGLG,442, hit,1,0
161,2, T_Scon, T_Scon_DRRR,469.5, hit,2,0
162,2, T_Scon, T_Scon_DRRR,404.8, hit,2,0
163,2, T_Scon, T_Scon_DRRR,468.3, hit,2,0
164,2, T_Scon, T_Scon_DRRR,479.7, hit,2,0
165,2, T_Sinc, T_Sinc_DGLG,395.2, hit,1,0
166,2, T_Scon, T_Scon_DRRR,454.6, hit,2,0
167,2, T_Scon, T_Scon_DRRR,426.1, hit,2,0
168,2, T_Scon, T_Scon_DRRR,413.5, hit,2,0
169,2, T_Scon, T_Scon_DRRR,417, hit,2,0
170,2, T_Scon, T_Scon_UGLG,388.4, hit,1,0
171,2, T_Scon, T_Scon_DRRR,447.8, hit,2,0
172,2, T_Scon, T_Scon_UGLG,443.2, hit,1,0
173,2, T_Scon, T_Scon_UGLG,382.7, hit,1,0
174,2, T_Scon, T_Scon_DRRR,378.1, incorrect,1,1
175,2, T_Sinc, T_Sinc_DGLG,473.5, hit,1,0
176,2, T_Sinc, T_Sinc_URRR,529, hit,2,0
177,2, T_Scon, T_Scon_UGLG,588.4, hit,1,0
178,2, T_Scon, T_Scon_DRRR,495.8, hit,2,0
179,2, T_Scon, T_Scon_DRRR,427.3, hit,2,0
180,2, T_Sinc, T_Sinc_DGLG,466.7, hit,1,0
181,2, T_Sinc, T_Sinc_DGLG,497.9, hit,1,0
182,2, T_Scon, T_Scon_UGLG,429.3, hit,1,0
183,2, T_Scon, T_Scon_DRRR,392.7, hit,2,0
184,2, T_Scon, T_Scon_DRRR,424.2, hit,2,0
185,2, T_Scon, T_Scon_DRRR,463.6, hit,2,0
186,2, T_Sinc, T_Sinc_URRR,467, hit,2,0
187,2, T_Sinc, T_Sinc_URRR,390.5, hit,2,0
188,2, T_Scon, T_Scon_DRRR,485.9, hit,2,0
189,2, T_Scon, T_Scon_DRRR,377.3, hit,2,0
190,2, T_Sinc, T_Sinc_URRR,388.8, hit,2,0
191,2, T_Scon, T_Scon_DRRR,456.2, hit,2,0
192,2, T_Scon, T_Scon_DRRR,415.7, hit,2,0
193,2, T_Scon, T_Scon_DRRR,363.1, hit,2,0
194,2, T_Scon, T_Scon_DRRR,382.6, hit,2,0
195,2, T_Sinc, T_Sinc_DGLG,862, hit,1,0
196,2, T_Scon, T_Scon_DRRR,433.4, hit,2,0
197,2, T_Scon, T_Scon_UGLG,356.9, hit,1,0
198,2, T_Scon, T_Scon_UGLG,828.3, hit,1,2
199,2, T_Scon, T_Scon_UGLG,375.7, hit,1,0
200,2, T_Scon, T_Scon_UGLG,367.2, hit,1,0
201,2, T_Scon, T_Scon_DRRR,402.6, hit,2,0
202,2, T_Sinc, T_Sinc_DGLG,414, hit,1,0
203,2, T_Scon, T_Scon_DRRR,409.5, hit,2,0
204,2, T_Scon, T_Scon_UGLG,404.9, hit,1,0
205,2, T_Sinc, T_Sinc_URRR,460.3, hit,2,0
206,2, T_Scon, T_Scon_DRRR,591.8, hit,2,0
207,2, T_Scon, T_Scon_DRRR,435.2, hit,2,0
208,2, T_Sinc, T_Sinc_DGLG,554.6, hit,1,0
209,2, T_Scon, T_Scon_UGLG,606.1, hit,1,0
210,2, T_Sinc, T_Sinc_URRR,517.5, hit,2,0
211,2, T_Scon, T_Scon_DRRR,409, hit,2,0
212,2, T_Scon, T_Scon_UGLG,412.4, hit,1,0
213,2, T_Scon, T_Scon_UGLG,371.8, hit,1,0
214,2, T_Sinc, T_Sinc_URRR,591.2, hit,2,0
215,2, T_Sinc, T_Sinc_DGLG,474.7, hit,1,0
216,2, T_Scon, T_Scon_DRRR,366.1, hit,2,0
217,2, T_Sinc, T_Sinc_URRR,397.3, hit,2,0
218,2, T_Scon, T_Scon_UGLG,400.8, hit,1,0
219,2, T_Scon, T_Scon_UGLG,360.1, hit,1,0
220,2, T_Scon, T_Scon_UGLG,363.6, hit,1,0
221,2, T_Scon, T_Scon_DRRR,471, hit,2,0
222,2, T_Scon, T_Scon_DRRR,454.5, hit,2,0
223,2, T_Sinc, T_Sinc_DGLG,457.9, hit,1,0
224,2, T_Scon, T_Scon_DRRR,401.4, hit,2,0
225,2, T_Scon, T_Scon_UGLG,368.8, hit,1,0
226,2, T_Scon, T_Scon_DRRR,320.2, hit,2,0
227,2, T_Sinc, T_Sinc_URRR,419.7, hit,2,0
228,2, T_Sinc, T_Sinc_URRR,431.1, hit,2,0
229,2, T_Scon, T_Scon_UGLG,434.5, hit,1,0
230,2, T_Scon, T_Scon_UGLG,438, hit,1,0
231,2, T_Scon, T_Scon_UGLG,329.5, hit,1,0
232,2, T_Sinc, T_Sinc_DGLG,464.8, hit,1,0
233,2, T_Sinc, T_Sinc_DGLG,444.3, hit,1,0
234,2, T_Scon, T_Scon_UGLG,335.8, hit,1,0
235,2, T_Scon, T_Scon_UGLG,371.1, hit,1,0
236,2, T_Scon, T_Scon_UGLG,362.6, hit,1,0
237,2, T_Scon, T_Scon_DRRR,630.1, hit,2,0
238,2, T_Scon, T_Scon_DRRR,361.5, hit,2,0
239,2, T_Scon, T_Scon_UGLG,396.9, hit,1,0
240,2, T_Sinc, T_Sinc_DGLG,548.4, hit,1,0
241,2, T_Scon, T_Scon_UGLG,339.8, hit,1,0
242,2, T_Scon, T_Scon_UGLG,335.2, hit,1,0
243,2, T_Scon, T_Scon_DRRR,550.7, hit,2,0
244,2, T_Scon, T_Scon_UGLG,562.1, hit,1,0
245,2, T_Scon, T_Scon_UGLG,361.5, hit,1,0
246,2, T_Scon, T_Scon_UGLG,333, hit,1,0
247,2, T_Scon, T_Scon_UGLG,364.5, hit,1,0
248,2, T_Scon, T_Scon_DRRR,359.8, hit,2,0
249,2, T_Scon, T_Scon_UGLG,443.3, hit,1,0
250,2, T_Scon, T_Scon_DRRR,574.8, hit,2,0
251,2, T_Scon, T_Scon_UGLG,438.1, hit,1,0
252,2, T_Sinc, T_Sinc_URRR,505.6, hit,2,0
253,2, T_Sinc, T_Sinc_DGLG,520.8, hit,1,0
254,2, T_Scon, T_Scon_UGLG,372.2, hit,1,0
255,2, T_Sinc, T_Sinc_DGLG,351.6, hit,1,0
256,2, T_Scon, T_Scon_UGLG,403.1, hit,1,0
257,2, T_Scon, T_Scon_DRRR,430.5, hit,2,0
258,2, T_Scon, T_Scon_UGLG,353.9, incorrect,2,1
259,2, T_Scon, T_Scon_DRRR,385.4, incorrect,1,1
260,2, T_Scon, T_Scon_UGLG,472.8, hit,1,0
261,2, T_Scon, T_Scon_UGLG,372.2, hit,1,0
262,2, T_Sinc, T_Sinc_URRR,379.7, hit,2,0
263,2, T_Scon, T_Scon_DRRR,399.1, hit,2,0
264,2, T_Scon, T_Scon_DRRR,434.5, hit,2,0
265,2, T_Scon, T_Scon_UGLG,362, hit,1,0
266,2, T_Scon, T_Scon_UGLG,405.4, hit,1,0
267,2, T_Scon, T_Scon_UGLG,380.9, hit,1,0
268,2, T_Scon, T_Scon_UGLG,456.2, hit,1,0
269,2, T_Scon, T_Scon_DRRR,391.7, hit,2,0
270,2, T_Scon, T_Scon_UGLG,587.2, hit,1,0
271,2, T_Scon, T_Scon_DRRR,462.6, hit,2,0
272,2, T_Scon, T_Scon_UGLG,334, hit,1,0
273,2, T_Scon, T_Scon_DRRR,393.5, hit,2,0
274,2, T_Sinc, T_Sinc_URRR,361, hit,2,0
275,2, T_Sinc, T_Sinc_URRR,420.3, hit,2,0
276,2, T_Sinc, T_Sinc_DGLG,371.8, hit,1,0
277,2, T_Scon, T_Scon_UGLG,447.2, hit,1,0
278,2, T_Sinc, T_Sinc_DGLG,370.6, hit,1,0
279,2, T_Scon, T_Scon_DRRR,442.1, hit,2,0
280,2, T_Sinc, T_Sinc_URRR,429.5, hit,2,0
281,2, T_Scon, T_Scon_UGLG,464.9, hit,1,0
282,2, T_Scon, T_Scon_UGLG,392.4, hit,1,0
283,2, T_Scon, T_Scon_UGLG,411.8, hit,1,0
284,2, T_Scon, T_Scon_DRRR,423.2, hit,2,0
285,2, T_Scon, T_Scon_UGLG,410.7, hit,1,0
286,2, T_Scon, T_Scon_UGLG,342.1, hit,1,0
287,2, T_Scon, T_Scon_DRRR,697.5, hit,2,0
288,2, T_Scon, T_Scon_DRRR,549, hit,2,0
289,3, T_Scon, T_Scon_UGLG,439.5, hit,1,0
290,3, T_Scon, T_Scon_UGLG,306.9, hit,1,0
291,3, T_Scon, T_Scon_UGLG,286.4, hit,1,0
292,3, T_Sinc, T_Sinc_DGLG,345.9, hit,1,0
293,3, T_Sinc, T_Sinc_DGLG,333.2, hit,1,0
294,3, T_Scon, T_Scon_DRRR,476.7, hit,2,0
295,3, T_Scon, T_Scon_UGLG,416.1, hit,1,0
296,3, T_Sinc, T_Sinc_URRR,315.5, hit,2,0
297,3, T_Scon, T_Scon_UGLG,411, hit,1,0
298,3, T_Scon, T_Scon_UGLG,374.4, hit,1,0
299,3, T_Scon, T_Scon_DRRR,457.8, hit,2,0
300,3, T_Scon, T_Scon_DRRR,393.3, hit,2,0
301,3, T_Scon, T_Scon_UGLG,360.8, hit,1,0
302,3, T_Scon, T_Scon_UGLG,308.1, hit,1,0
303,3, T_Scon, T_Scon_DRRR,431.6, hit,2,0
304,3, T_Scon, T_Scon_UGLG,383.1, hit,1,0
305,3, T_Scon, T_Scon_DRRR,502.5, hit,2,0
306,3, T_Sinc, T_Sinc_URRR,629.9, hit,2,0
307,3, T_Scon, T_Scon_UGLG,529.4, hit,1,0
308,3, T_Scon, T_Scon_DRRR,556.8, hit,2,0
309,3, T_Sinc, T_Sinc_DGLG,500.2, hit,1,0
310,3, T_Scon, T_Scon_DRRR,491.7, hit,2,0
311,3, T_Sinc, T_Sinc_URRR,731.1, hit,2,0
312,3, T_Scon, T_Scon_DRRR,430.6, hit,2,0
313,3, T_Sinc, T_Sinc_URRR,345.9, hit,2,0
314,3, T_Scon, T_Scon_UGLG,429.4, hit,1,0
315,3, T_Scon, T_Scon_UGLG,412.9, hit,1,0
316,3, T_Sinc, T_Sinc_DGLG,336.2, hit,1,0
317,3, T_Scon, T_Scon_DRRR,443.7, hit,2,0
318,3, T_Scon, T_Scon_DRRR,399.2, hit,2,0
319,3, T_Scon, T_Scon_DRRR,434.6, hit,2,0
320,3, T_Scon, T_Scon_DRRR,358, hit,2,0
321,3, T_Scon, T_Scon_UGLG,417.5, hit,1,0
322,3, T_Scon, T_Scon_DRRR,468.9, hit,2,0
323,3, T_Scon, T_Scon_UGLG,480.3, hit,1,0
324,3, T_Scon, T_Scon_DRRR,503.8, hit,2,0
325,3, T_Sinc, T_Sinc_DGLG,458.9, hit,1,0
326,3, T_Sinc, T_Sinc_DGLG,390.4, hit,1,0
327,3, T_Scon, T_Scon_UGLG,473.8, hit,1,0
328,3, T_Scon, T_Scon_UGLG,681.2, hit,1,0
329,3, T_Scon, T_Scon_DRRR,340.6, hit,2,0
330,3, T_Sinc, T_Sinc_DGLG,400.1, hit,1,0
331,3, T_Scon, T_Scon_UGLG,451.5, hit,1,0
332,3, T_Scon, T_Scon_DRRR,363, hit,2,0
333,3, T_Scon, T_Scon_UGLG,414.3, hit,1,0
334,3, T_Scon, T_Scon_DRRR,413.8, hit,2,0
335,3, T_Sinc, T_Sinc_DGLG,449.3, hit,1,0
336,3, T_Scon, T_Scon_UGLG,508.6, hit,1,0
337,3, T_Scon, T_Scon_UGLG,412.1, hit,1,0
338,3, T_Sinc, T_Sinc_URRR,403.6, hit,2,0
339,3, T_Scon, T_Scon_DRRR,623, hit,2,0
340,3, T_Scon, T_Scon_DRRR,410.4, hit,2,0
341,3, T_Scon, T_Scon_UGLG,397.9, hit,1,0
342,3, T_Scon, T_Scon_DRRR,377.3, hit,2,0
343,3, T_Sinc, T_Sinc_DGLG,444.7, hit,1,0
344,3, T_Scon, T_Scon_UGLG,444.2, hit,1,0
345,3, T_Sinc, T_Sinc_DGLG,311.6, hit,1,0
346,3, T_Sinc, T_Sinc_URRR,435, hit,2,0
347,3, T_Scon, T_Scon_UGLG,414.4, hit,1,0
348,3, T_Sinc, T_Sinc_DGLG,401.9, hit,1,0
349,3, T_Scon, T_Scon_UGLG,321.4, hit,1,0
350,3, T_Scon, T_Scon_UGLG,556.7, hit,1,0
351,3, T_Scon, T_Scon_DRRR,464.2, hit,2,0
352,3, T_Scon, T_Scon_DRRR,311.7, hit,2,0
353,3, T_Sinc, T_Sinc_URRR,299.1, hit,2,0
354,3, T_Scon, T_Scon_UGLG,510.5, hit,1,0
355,3, T_Scon, T_Scon_DRRR,378, hit,2,0
356,3, T_Scon, T_Scon_UGLG,465.4, hit,1,0
357,3, T_Scon, T_Scon_DRRR,436.8, hit,2,0
358,3, T_Scon, T_Scon_UGLG,528.3, hit,1,0
359,3, T_Scon, T_Scon_UGLG,747.7, hit,1,0
360,3, T_Scon, T_Scon_UGLG,487.2, hit,1,0
361,3, T_Scon, T_Scon_UGLG,390.3, hit,1,0
362,3, T_Scon, T_Scon_DRRR,365.7, hit,2,0
363,3, T_Scon, T_Scon_UGLG,401.2, hit,1,0
364,3, T_Sinc, T_Sinc_URRR,524.6, hit,2,0
365,3, T_Scon, T_Scon_UGLG,416, hit,1,0
366,3, T_Sinc, T_Sinc_URRR,451.5, hit,2,0
367,3, T_Scon, T_Scon_DRRR,542.9, hit,2,0
368,3, T_Scon, T_Scon_UGLG,366.4, hit,1,0
369,3, T_Scon, T_Scon_DRRR,445.8, hit,2,0
370,3, T_Scon, T_Scon_DRRR,361.2, hit,2,0
371,3, T_Sinc, T_Sinc_DGLG,456.7, hit,1,0
372,3, T_Scon, T_Scon_DRRR,404.2, hit,2,0
373,3, T_Scon, T_Scon_DRRR,455.5, hit,2,0
374,3, T_Sinc, T_Sinc_URRR,735, hit,2,0
375,3, T_Scon, T_Scon_DRRR,426.5, hit,2,0
376,3, T_Sinc, T_Sinc_DGLG,409.8, hit,1,0
377,3, T_Scon, T_Scon_UGLG,285.3, hit,1,0
378,3, T_Sinc, T_Sinc_URRR,424.8, hit,2,0
379,3, T_Scon, T_Scon_DRRR,412.1, hit,2,0
380,3, T_Sinc, T_Sinc_URRR,367.6, hit,2,0
381,3, T_Scon, T_Scon_UGLG,355.1, hit,1,0
382,3, T_Sinc, T_Sinc_URRR,478.5, hit,2,0
383,3, T_Scon, T_Scon_DRRR,457.9, hit,2,0
384,3, T_Scon, T_Scon_DRRR,385.4, hit,2,0
385,3, T_Sinc, T_Sinc_DGLG,376.8, hit,1,0
386,3, T_Scon, T_Scon_UGLG,492.2, incorrect,2,1
387,3, T_Scon, T_Scon_UGLG,487.7, hit,1,0
388,3, T_Scon, T_Scon_UGLG,419.1, hit,1,0
389,3, T_Scon, T_Scon_DRRR,406.6, hit,2,0
390,3, T_Scon, T_Scon_UGLG,398, hit,1,0
391,3, T_Scon, T_Scon_DRRR,581.5, hit,2,0
392,3, T_Sinc, T_Sinc_URRR,444.8, hit,2,0
393,3, T_Scon, T_Scon_DRRR,552.3, hit,2,0
394,3, T_Sinc, T_Sinc_DGLG,487.7, hit,1,0
395,3, T_Scon, T_Scon_UGLG,451.1, hit,1,0
396,3, T_Sinc, T_Sinc_URRR,558.6, hit,2,0
397,3, T_Scon, T_Scon_UGLG,413.8, hit,1,0
398,3, T_Scon, T_Scon_DRRR,429.2, hit,2,0
399,3, T_Scon, T_Scon_DRRR,340.6, incorrect,1,1
400,3, T_Scon, T_Scon_UGLG,632.1, hit,1,0
401,3, T_Sinc, T_Sinc_DGLG,363.5, hit,1,0
402,3, T_Scon, T_Scon_DRRR,463, hit,2,0
403,3, T_Scon, T_Scon_UGLG,442.4, hit,1,0
404,3, T_Scon, T_Scon_DRRR,437.8, hit,2,0
405,3, T_Sinc, T_Sinc_DGLG,433.3, hit,1,0
406,3, T_Scon, T_Scon_UGLG,512.7, hit,1,0
407,3, T_Scon, T_Scon_UGLG,492.1, hit,1,0
408,3, T_Scon, T_Scon_UGLG,547.6, hit,1,0
409,3, T_Scon, T_Scon_DRRR,447, hit,2,0
410,3, T_Scon, T_Scon_DRRR,458.5, hit,2,0
411,3, T_Scon, T_Scon_DRRR,377.9, hit,2,0
412,3, T_Scon, T_Scon_DRRR,349.3, hit,2,0
413,3, T_Scon, T_Scon_UGLG,404.7, hit,1,0
414,3, T_Scon, T_Scon_DRRR,472.2, hit,2,0
415,3, T_Scon, T_Scon_DRRR,323.7, hit,2,0
416,3, T_Scon, T_Scon_DRRR,335.1, hit,2,0
417,3, T_Scon, T_Scon_UGLG,358.5, hit,1,0
418,3, T_Scon, T_Scon_UGLG,354, hit,1,0
419,3, T_Sinc, T_Sinc_URRR,605.4, hit,2,0
420,3, T_Sinc, T_Sinc_URRR,420.8, hit,2,0
421,3, T_Scon, T_Scon_UGLG,528.3, hit,1,0
422,3, T_Scon, T_Scon_DRRR,427.7, hit,2,0
423,3, T_Scon, T_Scon_DRRR,391.1, hit,2,0
424,3, T_Scon, T_Scon_DRRR,334.6, hit,2,0
425,3, T_Scon, T_Scon_DRRR,322, hit,2,0
426,3, T_Scon, T_Scon_UGLG,473.4, hit,1,0
427,3, T_Sinc, T_Sinc_URRR,540.9, hit,2,0
428,3, T_Sinc, T_Sinc_DGLG,476.4, hit,1,0
429,3, T_Scon, T_Scon_DRRR,455.7, hit,2,0
430,3, T_Scon, T_Scon_UGLG,411.2, hit,1,0
431,3, T_Scon, T_Scon_DRRR,338.7, hit,2,0
432,3, T_Scon, T_Scon_UGLG,482, hit,1,0
433,4, T_Sinc, T_Sinc_URRR,412.6, hit,2,0
434,4, T_Sinc, T_Sinc_URRR,311.9, hit,2,0
435,4, T_Sinc, T_Sinc_DGLG,459.4, hit,1,0
436,4, T_Sinc, T_Sinc_DGLG,450.8, hit,1,0
437,4, T_Sinc, T_Sinc_DGLG,474.3, hit,1,0
438,4, T_Sinc, T_Sinc_DGLG,385.7, hit,1,0
439,4, T_Sinc, T_Sinc_URRR,393.2, hit,2,0
440,4, T_Sinc, T_Sinc_DGLG,336.5, hit,1,0
441,4, T_Scon, T_Scon_DRRR,324, incorrect,1,1
442,4, T_Sinc, T_Sinc_URRR,447.5, hit,2,0
443,4, T_Sinc, T_Sinc_URRR,290.9, hit,2,0
444,4, T_Sinc, T_Sinc_DGLG,370.3, hit,1,0
445,4, T_Sinc, T_Sinc_DGLG,421.8, hit,1,0
446,4, T_Scon, T_Scon_DRRR,413.2, hit,2,0
447,4, T_Sinc, T_Sinc_DGLG,452.6, hit,1,0
448,4, T_Sinc, T_Sinc_DGLG,448.1, hit,1,0
449,4, T_Sinc, T_Sinc_URRR,419.5, hit,2,0
450,4, T_Scon, T_Scon_UGLG,679, hit,1,0
451,4, T_Sinc, T_Sinc_DGLG,390.4, hit,1,0
452,4, T_Sinc, T_Sinc_URRR,477.8, hit,2,0
453,4, T_Sinc, T_Sinc_URRR,453.3, hit,2,0
454,4, T_Sinc, T_Sinc_URRR,352.7, hit,2,0
455,4, T_Scon, T_Scon_DRRR,452.1, hit,2,0
456,4, T_Scon, T_Scon_UGLG,455.6, hit,1,0
457,4, T_Sinc, T_Sinc_URRR,451, hit,2,0
458,4, T_Sinc, T_Sinc_URRR,378.4, hit,2,0
459,4, T_Scon, T_Scon_UGLG,433.9, hit,1,0
460,4, T_Sinc, T_Sinc_URRR,437.4, hit,2,0
461,4, T_Sinc, T_Sinc_URRR,388.7, hit,2,0
462,4, T_Sinc, T_Sinc_DGLG,376.2, hit,1,0
463,4, T_Scon, T_Scon_DRRR,539.7, hit,2,0
464,4, T_Sinc, T_Sinc_DGLG,459, hit,1,0
465,4, T_Sinc, T_Sinc_DGLG,494.5, hit,1,0
466,4, T_Sinc, T_Sinc_DGLG,573.9, hit,1,0
467,4, T_Scon, T_Scon_DRRR,425.4, hit,2,0
468,4, T_Sinc, T_Sinc_URRR,308.8, hit,2,0
469,4, T_Sinc, T_Sinc_DGLG,404, hit,1,0
470,4, T_Sinc, T_Sinc_URRR,423.3, hit,2,0
471,4, T_Scon, T_Scon_DRRR,442.8, hit,2,0
472,4, T_Scon, T_Scon_UGLG,406.2, hit,1,0
473,4, T_Sinc, T_Sinc_DGLG,369.7, hit,1,0
474,4, T_Sinc, T_Sinc_DGLG,397.2, hit,1,0
475,4, T_Sinc, T_Sinc_URRR,368.6, hit,2,0
476,4, T_Scon, T_Scon_DRRR,432, hit,2,0
477,4, T_Sinc, T_Sinc_URRR,403.5, hit,2,0
478,4, T_Sinc, T_Sinc_URRR,534.9, hit,2,0
479,4, T_Scon, T_Scon_DRRR,506.3, hit,2,0
480,4, T_Sinc, T_Sinc_URRR,329.8, hit,2,0
481,4, T_Sinc, T_Sinc_URRR,329.2, hit,2,0
482,4, T_Sinc, T_Sinc_URRR,332.6, hit,2,0
483,4, T_Sinc, T_Sinc_URRR,604, incorrect,1,1
484,4, T_Scon, T_Scon_UGLG,423.4, hit,1,0
485,4, T_Sinc, T_Sinc_DGLG,342.9, hit,1,0
486,4, T_Sinc, T_Sinc_DGLG,374.4, hit,1,0
487,4, T_Sinc, T_Sinc_DGLG,697.7, hit,1,0
488,4, T_Sinc, T_Sinc_DGLG,413.2, hit,1,0
489,4, T_Sinc, T_Sinc_URRR,520.7, hit,2,0
490,4, T_Sinc, T_Sinc_DGLG,456.1, hit,1,0
491,4, T_Sinc, T_Sinc_DGLG,783.5, hit,1,0
492,4, T_Sinc, T_Sinc_URRR,495, hit,2,0
493,4, T_Sinc, T_Sinc_DGLG,434.5, hit,1,0
494,4, T_Scon, T_Scon_DRRR,561.8, hit,2,0
495,4, T_Sinc, T_Sinc_URRR,493.3, hit,2,0
496,4, T_Sinc, T_Sinc_URRR,328.7, hit,2,0
497,4, T_Sinc, T_Sinc_DGLG,336.1, hit,1,0
498,4, T_Sinc, T_Sinc_URRR,395.6, hit,2,0
499,4, T_Sinc, T_Sinc_DGLG,463, hit,1,0
500,4, T_Sinc, T_Sinc_URRR,366.5, hit,2,0
501,4, T_Sinc, T_Sinc_URRR,433.9, hit,2,0
502,4, T_Scon, T_Scon_UGLG,461.3, hit,1,0
503,4, T_Sinc, T_Sinc_DGLG,504.8, hit,1,0
504,4, T_Scon, T_Scon_UGLG,420.2, hit,1,0
505,4, T_Sinc, T_Sinc_URRR,491.4, hit,2,0
506,4, T_Sinc, T_Sinc_DGLG,486.8, incorrect,2,1
507,4, T_Sinc, T_Sinc_URRR,602.2, hit,2,0
508,4, T_Scon, T_Scon_DRRR,401.6, hit,2,0
509,4, T_Scon, T_Scon_UGLG,405.1, hit,1,0
510,4, T_Scon, T_Scon_DRRR,544.6, hit,2,0
511,4, T_Scon, T_Scon_UGLG,396, hit,1,0
512,4, T_Scon, T_Scon_UGLG,503.4, hit,1,0
513,4, T_Sinc, T_Sinc_URRR,438.9, hit,2,0
514,4, T_Sinc, T_Sinc_DGLG,770.2, hit,1,0
515,4, T_Sinc, T_Sinc_DGLG,469.7, hit,1,0
516,4, T_Sinc, T_Sinc_DGLG,393.2, hit,1,0
517,4, T_Sinc, T_Sinc_DGLG,444.7, hit,1,0
518,4, T_Sinc, T_Sinc_DGLG,344, hit,1,0
519,4, T_Scon, T_Scon_DRRR,467.5, hit,2,0
520,4, T_Sinc, T_Sinc_URRR,406.9, hit,2,0
521,4, T_Scon, T_Scon_UGLG,490.3, hit,1,0
522,4, T_Sinc, T_Sinc_DGLG,413.8, hit,1,0
523,4, T_Sinc, T_Sinc_DGLG,545.2, hit,1,0
524,4, T_Sinc, T_Sinc_DGLG,412.6, hit,1,0
525,4, T_Sinc, T_Sinc_DGLG,456.1, hit,1,0
526,4, T_Scon, T_Scon_UGLG,451.5, hit,1,0
527,4, T_Sinc, T_Sinc_URRR,670.9, hit,2,0
528,4, T_Sinc, T_Sinc_DGLG,346.4, hit,1,0
529,4, T_Sinc, T_Sinc_URRR,401.8, hit,2,0
530,4, T_Sinc, T_Sinc_URRR,573.2, hit,2,0
531,4, T_Sinc, T_Sinc_DGLG,1004.7, hit,1,2
532,4, T_Sinc, T_Sinc_URRR,420.1, hit,2,0
533,4, T_Scon, T_Scon_UGLG,487.6, hit,1,0
534,4, T_Scon, T_Scon_DRRR,351.1, incorrect,1,1
535,4, T_Sinc, T_Sinc_DGLG,514.4, hit,1,0
536,4, T_Sinc, T_Sinc_URRR,505.9, hit,2,0
537,4, T_Sinc, T_Sinc_URRR,401.4, hit,2,0
538,4, T_Sinc, T_Sinc_URRR,540.8, hit,2,0
539,4, T_Sinc, T_Sinc_URRR,344.2, hit,2,0
540,4, T_Sinc, T_Sinc_DGLG,547.7, hit,1,0
541,4, T_Sinc, T_Sinc_URRR,454.8, hit,2,0
542,4, T_Sinc, T_Sinc_URRR,322.2, hit,2,0
543,4, T_Scon, T_Scon_UGLG,477.6, hit,1,0
544,4, T_Sinc, T_Sinc_URRR,529.1, hit,2,0
545,4, T_Scon, T_Scon_DRRR,412.5, hit,2,0
546,4, T_Scon, T_Scon_UGLG,372, hit,1,0
547,4, T_Sinc, T_Sinc_DGLG,439.4, hit,1,0
548,4, T_Sinc, T_Sinc_URRR,554.8, hit,2,0
549,4, T_Sinc, T_Sinc_DGLG,418.3, hit,1,0
550,4, T_Scon, T_Scon_DRRR,501.7, hit,2,0
551,4, T_Sinc, T_Sinc_DGLG,617.1, hit,1,0
552,4, T_Scon, T_Scon_UGLG,564.6, hit,1,0
553,4, T_Sinc, T_Sinc_URRR,472, hit,2,0
554,4, T_Sinc, T_Sinc_URRR,571.4, hit,2,0
555,4, T_Sinc, T_Sinc_DGLG,426.9, hit,1,0
556,4, T_Sinc, T_Sinc_URRR,614.4, hit,2,0
557,4, T_Sinc, T_Sinc_DGLG,421.7, hit,1,0
558,4, T_Sinc, T_Sinc_URRR,501.2, incorrect,1,1
559,4, T_Sinc, T_Sinc_URRR,396.7, incorrect,1,1
560,4, T_Sinc, T_Sinc_DGLG,584.1, hit,1,0
561,4, T_Scon, T_Scon_UGLG,419.5, hit,1,0
562,4, T_Scon, T_Scon_DRRR,551, hit,2,0
563,4, T_Sinc, T_Sinc_URRR,586.4, hit,2,0
564,4, T_Sinc, T_Sinc_URRR,465.8, hit,2,0
565,4, T_Sinc, T_Sinc_URRR,413.3, hit,2,0
566,4, T_Sinc, T_Sinc_DGLG,580.8, hit,1,0
567,4, T_Sinc, T_Sinc_DGLG,392.2, hit,1,0
568,4, T_Sinc, T_Sinc_DGLG,467.6, hit,1,0
569,4, T_Sinc, T_Sinc_DGLG,431.1, hit,1,0
570,4, T_Scon, T_Scon_DRRR,658.4, hit,2,0
571,4, T_Sinc, T_Sinc_DGLG,413.9, hit,1,0
572,4, T_Sinc, T_Sinc_DGLG,449.4, hit,1,0
573,4, T_Scon, T_Scon_UGLG,468.8, hit,1,0
574,4, T_Scon, T_Scon_DRRR,432.2, hit,2,0
575,4, T_Sinc, T_Sinc_URRR,511.7, hit,2,0
576,4, T_Sinc, T_Sinc_DGLG,479.1, hit,1,0
577,5, T_Scon, T_Scon_DRRR,410.2, hit,2,0
578,5, T_Sinc, T_Sinc_URRR,361.5, hit,2,0
579,5, T_Sinc, T_Sinc_URRR,353, hit,2,0
580,5, T_Scon, T_Scon_UGLG,340.4, hit,1,0
581,5, T_Sinc, T_Sinc_DGLG,407.8, hit,1,0
582,5, T_Sinc, T_Sinc_DGLG,355.3, hit,1,0
583,5, T_Sinc, T_Sinc_DGLG,478.8, hit,1,0
584,5, T_Sinc, T_Sinc_DGLG,338.1, hit,1,0
585,5, T_Sinc, T_Sinc_URRR,557.6, hit,2,0
586,5, T_Sinc, T_Sinc_DGLG,473.1, hit,1,0
587,5, T_Scon, T_Scon_UGLG,412.4, hit,1,0
588,5, T_Sinc, T_Sinc_URRR,395.9, hit,2,0
589,5, T_Sinc, T_Sinc_URRR,407.3, hit,2,0
590,5, T_Sinc, T_Sinc_URRR,546.7, hit,2,0
591,5, T_Scon, T_Scon_UGLG,566.2, hit,1,0
592,5, T_Sinc, T_Sinc_URRR,737.7, hit,2,0
593,5, T_Sinc, T_Sinc_URRR,409.1, hit,2,0
594,5, T_Sinc, T_Sinc_DGLG,524.5, hit,1,0
595,5, T_Sinc, T_Sinc_DGLG,388, hit,1,0
596,5, T_Scon, T_Scon_UGLG,607.5, hit,1,0
597,5, T_Scon, T_Scon_UGLG,390.8, hit,1,0
598,5, T_Sinc, T_Sinc_URRR,418.3, hit,2,0
599,5, T_Sinc, T_Sinc_URRR,353.8, hit,2,0
600,5, T_Sinc, T_Sinc_URRR,357.1, hit,2,0
601,5, T_Scon, T_Scon_DRRR,848.7, hit,2,2
602,5, T_Sinc, T_Sinc_URRR,512.1, hit,2,0
603,5, T_Sinc, T_Sinc_DGLG,379.4, hit,1,0
604,5, T_Sinc, T_Sinc_URRR,514.9, hit,2,0
605,5, T_Sinc, T_Sinc_DGLG,470.4, hit,1,0
606,5, T_Sinc, T_Sinc_DGLG,545.8, hit,1,0
607,5, T_Sinc, T_Sinc_URRR,501.2, hit,2,0
608,5, T_Sinc, T_Sinc_DGLG,444.7, hit,1,0
609,5, T_Sinc, T_Sinc_DGLG,440.1, hit,1,0
610,5, T_Scon, T_Scon_UGLG,387.5, hit,1,0
611,5, T_Scon, T_Scon_DRRR,603, hit,2,0
612,5, T_Sinc, T_Sinc_DGLG,758.4, hit,1,0
613,5, T_Scon, T_Scon_UGLG,409.6, hit,1,0
614,5, T_Sinc, T_Sinc_URRR,377, hit,2,0
615,5, T_Sinc, T_Sinc_URRR,420.4, hit,2,0
616,5, T_Sinc, T_Sinc_DGLG,543.9, hit,1,0
617,5, T_Sinc, T_Sinc_DGLG,751.3, hit,1,0
618,5, T_Scon, T_Scon_UGLG,414.7, hit,1,0
619,5, T_Sinc, T_Sinc_URRR,610.1, hit,2,0
620,5, T_Scon, T_Scon_DRRR,405.5, hit,2,0
621,5, T_Sinc, T_Sinc_DGLG,497, hit,1,0
622,5, T_Sinc, T_Sinc_DGLG,524.5, hit,1,0
623,5, T_Scon, T_Scon_DRRR,483.9, hit,2,0
624,5, T_Sinc, T_Sinc_URRR,719.3, hit,2,0
625,5, T_Sinc, T_Sinc_URRR,602.8, hit,2,0
626,5, T_Sinc, T_Sinc_URRR,674.3, hit,2,0
627,5, T_Sinc, T_Sinc_URRR,397.6, hit,2,0
628,5, T_Sinc, T_Sinc_DGLG,489.1, hit,1,0
629,5, T_Sinc, T_Sinc_DGLG,428.5, hit,1,0
630,5, T_Sinc, T_Sinc_DGLG,375.9, hit,1,0
631,5, T_Sinc, T_Sinc_DGLG,319.4, hit,1,0
632,5, T_Sinc, T_Sinc_URRR,378.8, hit,2,0
633,5, T_Sinc, T_Sinc_URRR,546.3, hit,2,0
634,5, T_Sinc, T_Sinc_DGLG,349.7, hit,1,0
635,5, T_Sinc, T_Sinc_DGLG,345.1, hit,1,0
636,5, T_Sinc, T_Sinc_DGLG,316.6, hit,1,0
637,5, T_Sinc, T_Sinc_URRR,400, hit,2,0
638,5, T_Sinc, T_Sinc_DGLG,447.4, hit,1,0
639,5, T_Sinc, T_Sinc_DGLG,486.9, hit,1,0
640,5, T_Sinc, T_Sinc_URRR,410.3, hit,2,0
641,5, T_Scon, T_Scon_UGLG,401.7, hit,1,0
642,5, T_Sinc, T_Sinc_DGLG,677.2, hit,1,0
643,5, T_Sinc, T_Sinc_DGLG,480.7, hit,1,0
644,5, T_Scon, T_Scon_DRRR,492, hit,2,0
645,5, T_Sinc, T_Sinc_URRR,423.5, hit,2,0
646,5, T_Scon, T_Scon_DRRR,339, hit,2,0
647,5, T_Sinc, T_Sinc_URRR,462.4, hit,2,0
648,5, T_Sinc, T_Sinc_URRR,649.8, hit,2,0
649,5, T_Sinc, T_Sinc_URRR,401, hit,2,0
650,5, T_Sinc, T_Sinc_URRR,388.4, hit,2,0
651,5, T_Sinc, T_Sinc_DGLG,807.8, incorrect,2,1
652,5, T_Sinc, T_Sinc_DGLG,351.3, hit,1,0
653,5, T_Scon, T_Scon_DRRR,422.8, hit,2,0
654,5, T_Sinc, T_Sinc_DGLG,418.2, hit,1,0
655,5, T_Scon, T_Scon_UGLG,369.6, hit,1,0
656,5, T_Sinc, T_Sinc_URRR,433.1, hit,2,0
657,5, T_Sinc, T_Sinc_URRR,404.5, hit,2,0
658,5, T_Sinc, T_Sinc_DGLG,1123.9, hit,1,2
659,5, T_Sinc, T_Sinc_DGLG,351.4, hit,1,0
660,5, T_Sinc, T_Sinc_URRR,410.8, hit,2,0
661,5, T_Sinc, T_Sinc_DGLG,426.2, hit,1,0
662,5, T_Sinc, T_Sinc_URRR,373.7, hit,2,0
663,5, T_Scon, T_Scon_UGLG,441.1, hit,1,0
664,5, T_Sinc, T_Sinc_URRR,616.5, hit,2,0
665,5, T_Scon, T_Scon_UGLG,452, hit,1,0
666,5, T_Scon, T_Scon_DRRR,431.4, hit,2,0
667,5, T_Sinc, T_Sinc_DGLG,426.8, hit,1,0
668,5, T_Sinc, T_Sinc_URRR,830.3, hit,2,0
669,5, T_Sinc, T_Sinc_DGLG,433.8, hit,1,0
670,5, T_Sinc, T_Sinc_URRR,693.1, hit,2,0
671,5, T_Sinc, T_Sinc_DGLG,1104.6, hit,1,2
672,5, T_Sinc, T_Sinc_DGLG,364, hit,1,0
673,5, T_Sinc, T_Sinc_URRR,1067.4, hit,2,2
674,5, T_Sinc, T_Sinc_URRR,298.9, hit,2,0
675,5, T_Sinc, T_Sinc_URRR,414.3, hit,2,0
676,5, T_Scon, T_Scon_DRRR,429.8, hit,2,0
677,5, T_Sinc, T_Sinc_DGLG,861.2, hit,1,0
678,5, T_Scon, T_Scon_DRRR,416.6, hit,2,0
679,5, T_Sinc, T_Sinc_DGLG,448, hit,1,0
680,5, T_Sinc, T_Sinc_DGLG,383.5, hit,1,0
681,5, T_Scon, T_Scon_DRRR,394.9, hit,2,0
682,5, T_Sinc, T_Sinc_DGLG,478.4, hit,1,0
683,5, T_Sinc, T_Sinc_DGLG,1385.7, hit,1,2
684,5, T_Sinc, T_Sinc_DGLG,489.2, hit,1,0
685,5, T_Scon, T_Scon_UGLG,524.4, hit,1,0
686,5, T_Sinc, T_Sinc_DGLG,319.8, hit,1,0
687,5, T_Scon, T_Scon_DRRR,639.2, hit,2,0
688,5, T_Sinc, T_Sinc_DGLG,738.7, hit,1,0
689,5, T_Sinc, T_Sinc_URRR,1278.1, hit,2,2
690,5, T_Sinc, T_Sinc_URRR,325.5, hit,2,0
691,5, T_Sinc, T_Sinc_DGLG,273, hit,1,0
692,5, T_Sinc, T_Sinc_URRR,336.4, hit,2,0
693,5, T_Scon, T_Scon_UGLG,351.9, hit,1,0
694,5, T_Sinc, T_Sinc_DGLG,459.3, hit,1,0
695,5, T_Sinc, T_Sinc_URRR,342.7, incorrect,1,1
696,5, T_Sinc, T_Sinc_URRR,410.2, hit,2,0
697,5, T_Sinc, T_Sinc_URRR,477.6, hit,2,0
698,5, T_Sinc, T_Sinc_DGLG,461, hit,1,0
699,5, T_Scon, T_Scon_DRRR,1020.5, hit,2,2
700,5, T_Scon, T_Scon_UGLG,499.9, hit,1,0
701,5, T_Sinc, T_Sinc_URRR,471.3, hit,2,0
702,5, T_Sinc, T_Sinc_DGLG,842.8, incorrect,2,1
703,5, T_Sinc, T_Sinc_URRR,406.2, hit,2,0
704,5, T_Scon, T_Scon_UGLG,425.7, hit,1,0
705,5, T_Sinc, T_Sinc_URRR,429.1, hit,2,0
706,5, T_Sinc, T_Sinc_URRR,384.6, hit,2,0
707,5, T_Sinc, T_Sinc_DGLG,540, hit,1,0
708,5, T_Sinc, T_Sinc_URRR,399.4, hit,2,0
709,5, T_Scon, T_Scon_DRRR,502.9, hit,2,0
710,5, T_Sinc, T_Sinc_DGLG,514.3, hit,1,0
711,5, T_Sinc, T_Sinc_DGLG,861.7, hit,1,0
712,5, T_Scon, T_Scon_DRRR,977.2, hit,2,2
713,5, T_Sinc, T_Sinc_URRR,0.1, miss,3427773,1
714,5, T_Scon, T_Scon_UGLG,600, hit,1,0
715,5, T_Sinc, T_Sinc_URRR,443.5, hit,2,0
716,5, T_Scon, T_Scon_DRRR,495, hit,2,0
717,5, T_Sinc, T_Sinc_DGLG,342.3, hit,1,0
718,5, T_Scon, T_Scon_UGLG,521.8, hit,1,0
719,5, T_Sinc, T_Sinc_URRR,481.3, hit,2,0
720,5, T_Scon, T_Scon_DRRR,564.6, hit,2,0
721,6, T_Sinc, T_Sinc_DGLG,440.6, hit,1,0
722,6, T_Scon, T_Scon_UGLG,428.1, hit,1,0
723,6, T_Sinc, T_Sinc_DGLG,351.4, hit,1,0
724,6, T_Sinc, T_Sinc_DGLG,354.9, hit,1,0
725,6, T_Sinc, T_Sinc_URRR,478.4, hit,2,0
726,6, T_Sinc, T_Sinc_URRR,405.7, hit,2,0
727,6, T_Sinc, T_Sinc_URRR,385.2, hit,2,0
728,6, T_Sinc, T_Sinc_DGLG,508.7, hit,1,0
729,6, T_Sinc, T_Sinc_URRR,716.1, hit,2,0
730,6, T_Scon, T_Scon_UGLG,435.5, hit,1,0
731,6, T_Sinc, T_Sinc_URRR,495, hit,2,0
732,6, T_Sinc, T_Sinc_URRR,426.4, hit,2,0
733,6, T_Scon, T_Scon_DRRR,401.8, incorrect,1,1
734,6, T_Sinc, T_Sinc_URRR,749.3, hit,2,0
735,6, T_Sinc, T_Sinc_URRR,432.8, hit,2,0
736,6, T_Sinc, T_Sinc_DGLG,392.1, hit,1,0
737,6, T_Scon, T_Scon_UGLG,419.6, hit,1,0
738,6, T_Scon, T_Scon_DRRR,471.1, hit,2,0
739,6, T_Sinc, T_Sinc_DGLG,474.4, hit,1,0
740,6, T_Scon, T_Scon_UGLG,405.9, hit,1,0
741,6, T_Sinc, T_Sinc_DGLG,393.3, hit,1,0
742,6, T_Sinc, T_Sinc_DGLG,440.7, hit,1,0
743,6, T_Sinc, T_Sinc_URRR,404.2, hit,2,0
744,6, T_Sinc, T_Sinc_DGLG,439.6, hit,1,0
745,6, T_Scon, T_Scon_DRRR,539.1, hit,2,0
746,6, T_Sinc, T_Sinc_URRR,422.5, hit,2,0
747,6, T_Scon, T_Scon_UGLG,473.9, hit,1,0
748,6, T_Sinc, T_Sinc_URRR,557.4, hit,2,0
749,6, T_Sinc, T_Sinc_DGLG,416.8, hit,1,0
750,6, T_Sinc, T_Sinc_URRR,312.3, hit,2,0
751,6, T_Sinc, T_Sinc_DGLG,475.7, hit,1,0
752,6, T_Scon, T_Scon_DRRR,439.2, hit,2,0
753,6, T_Sinc, T_Sinc_URRR,346.6, hit,2,0
754,6, T_Sinc, T_Sinc_DGLG,422, hit,1,0
755,6, T_Scon, T_Scon_DRRR,465.5, hit,2,0
756,6, T_Scon, T_Scon_UGLG,484.9, hit,1,0
757,6, T_Sinc, T_Sinc_DGLG,432.1, hit,1,0
758,6, T_Sinc, T_Sinc_URRR,783.4, hit,2,0
759,6, T_Sinc, T_Sinc_URRR,454.9, hit,2,0
760,6, T_Sinc, T_Sinc_URRR,506.4, hit,2,0
761,6, T_Sinc, T_Sinc_DGLG,449.8, hit,1,0
762,6, T_Sinc, T_Sinc_URRR,501.3, hit,2,0
763,6, T_Sinc, T_Sinc_URRR,432.8, hit,2,0
764,6, T_Scon, T_Scon_UGLG,400.1, hit,1,0
765,6, T_Sinc, T_Sinc_DGLG,519.6, hit,1,0
766,6, T_Sinc, T_Sinc_DGLG,411, hit,1,0
767,6, T_Sinc, T_Sinc_URRR,446.4, hit,2,0
768,6, T_Sinc, T_Sinc_URRR,497.9, hit,2,0
769,6, T_Sinc, T_Sinc_DGLG,369.3, hit,1,0
770,6, T_Sinc, T_Sinc_DGLG,436.7, hit,1,0
771,6, T_Scon, T_Scon_UGLG,364.2, hit,1,0
772,6, T_Sinc, T_Sinc_DGLG,415.6, hit,1,0
773,6, T_Sinc, T_Sinc_DGLG,351, hit,1,0
774,6, T_Sinc, T_Sinc_URRR,466.5, hit,2,0
775,6, T_Sinc, T_Sinc_DGLG,413.9, hit,1,0
776,6, T_Scon, T_Scon_DRRR,625.3, hit,2,0
777,6, T_Scon, T_Scon_UGLG,812.8, hit,1,2
778,6, T_Sinc, T_Sinc_DGLG,468.3, hit,1,0
779,6, T_Scon, T_Scon_DRRR,503.6, hit,2,0
780,6, T_Sinc, T_Sinc_URRR,487.1, hit,2,0
781,6, T_Sinc, T_Sinc_DGLG,514.6, hit,1,0
782,6, T_Sinc, T_Sinc_URRR,674, hit,2,0
783,6, T_Sinc, T_Sinc_URRR,457.4, hit,2,0
784,6, T_Sinc, T_Sinc_URRR,448.9, hit,2,0
785,6, T_Sinc, T_Sinc_DGLG,512.3, hit,1,0
786,6, T_Sinc, T_Sinc_URRR,519.7, hit,2,0
787,6, T_Sinc, T_Sinc_URRR,963.2, hit,2,2
788,6, T_Sinc, T_Sinc_DGLG,530.7, hit,1,0
789,6, T_Sinc, T_Sinc_URRR,378, hit,2,0
790,6, T_Sinc, T_Sinc_DGLG,421.5, hit,1,0
791,6, T_Scon, T_Scon_DRRR,477, hit,2,0
792,6, T_Scon, T_Scon_UGLG,348.3, hit,1,0
793,6, T_Scon, T_Scon_DRRR,466.3, hit,2,0
794,6, T_Scon, T_Scon_UGLG,421.8, hit,1,0
795,6, T_Scon, T_Scon_DRRR,405.3, hit,2,0
796,6, T_Sinc, T_Sinc_URRR,316.7, hit,2,0
797,6, T_Scon, T_Scon_DRRR,368.1, hit,2,0
798,6, T_Sinc, T_Sinc_DGLG,599.6, hit,1,0
799,6, T_Sinc, T_Sinc_DGLG,423, hit,1,0
800,6, T_Sinc, T_Sinc_URRR,386.4, hit,2,0
801,6, T_Sinc, T_Sinc_URRR,429.9, hit,2,0
802,6, T_Sinc, T_Sinc_URRR,501.4, hit,2,0
803,6, T_Scon, T_Scon_DRRR,392.7, hit,2,0
804,6, T_Sinc, T_Sinc_DGLG,636.2, hit,1,0
805,6, T_Sinc, T_Sinc_URRR,439.6, hit,2,0
806,6, T_Scon, T_Scon_DRRR,355.1, hit,2,0
807,6, T_Scon, T_Scon_DRRR,374.5, hit,2,0
808,6, T_Scon, T_Scon_UGLG,406, hit,1,0
809,6, T_Sinc, T_Sinc_DGLG,633.4, hit,1,0
810,6, T_Sinc, T_Sinc_DGLG,416.8, hit,1,0
811,6, T_Sinc, T_Sinc_DGLG,404.3, hit,1,0
812,6, T_Sinc, T_Sinc_DGLG,419.6, hit,1,0
813,6, T_Sinc, T_Sinc_URRR,515.1, hit,2,0
814,6, T_Sinc, T_Sinc_DGLG,518.6, hit,1,0
815,6, T_Sinc, T_Sinc_URRR,514, hit,2,0
816,6, T_Sinc, T_Sinc_DGLG,397.5, hit,1,0
817,6, T_Sinc, T_Sinc_URRR,552.8, hit,2,0
818,6, T_Sinc, T_Sinc_URRR,516.3, hit,2,0
819,6, T_Sinc, T_Sinc_URRR,471.8, hit,2,0
820,6, T_Sinc, T_Sinc_DGLG,443.1, hit,1,0
821,6, T_Sinc, T_Sinc_DGLG,430.6, hit,1,0
822,6, T_Sinc, T_Sinc_DGLG,390.1, hit,1,0
823,6, T_Sinc, T_Sinc_DGLG,385.6, hit,1,0
824,6, T_Sinc, T_Sinc_URRR,416.9, hit,2,0
825,6, T_Sinc, T_Sinc_URRR,448.4, hit,2,0
826,6, T_Sinc, T_Sinc_URRR,467.9, hit,2,0
827,6, T_Sinc, T_Sinc_DGLG,530.9, hit,1,0
828,6, T_Scon, T_Scon_DRRR,454.4, hit,2,0
829,6, T_Sinc, T_Sinc_DGLG,341.8, hit,1,0
830,6, T_Scon, T_Scon_UGLG,405.2, hit,1,0
831,6, T_Scon, T_Scon_UGLG,368.7, hit,1,0
832,6, T_Sinc, T_Sinc_URRR,468.2, hit,2,0
833,6, T_Scon, T_Scon_DRRR,423.5, hit,2,0
834,6, T_Sinc, T_Sinc_URRR,419, hit,2,0
835,6, T_Sinc, T_Sinc_URRR,502.4, hit,2,0
836,6, T_Sinc, T_Sinc_DGLG,425.9, hit,1,0
837,6, T_Sinc, T_Sinc_URRR,405.3, hit,2,0
838,6, T_Scon, T_Scon_DRRR,440.7, hit,2,0
839,6, T_Scon, T_Scon_UGLG,488.2, hit,1,0
840,6, T_Sinc, T_Sinc_URRR,423.6, hit,2,0
841,6, T_Sinc, T_Sinc_DGLG,467, hit,1,0
842,6, T_Scon, T_Scon_DRRR,514.5, hit,2,0
843,6, T_Sinc, T_Sinc_URRR,413.9, hit,2,0
844,6, T_Sinc, T_Sinc_DGLG,465.3, hit,1,0
845,6, T_Sinc, T_Sinc_DGLG,484.8, hit,1,0
846,6, T_Sinc, T_Sinc_DGLG,412.2, hit,1,0
847,6, T_Sinc, T_Sinc_DGLG,471.6, hit,1,0
848,6, T_Sinc, T_Sinc_DGLG,467.1, hit,1,0
849,6, T_Sinc, T_Sinc_URRR,566.5, hit,2,0
850,6, T_Scon, T_Scon_UGLG,569.9, hit,1,0
851,6, T_Sinc, T_Sinc_URRR,481.4, hit,2,0
852,6, T_Sinc, T_Sinc_URRR,492.8, hit,2,0
853,6, T_Scon, T_Scon_UGLG,552.3, hit,1,0
854,6, T_Sinc, T_Sinc_URRR,503.6, hit,2,0
855,6, T_Sinc, T_Sinc_DGLG,531.1, hit,1,0
856,6, T_Sinc, T_Sinc_URRR,678.6, hit,2,0
857,6, T_Sinc, T_Sinc_DGLG,514, hit,1,0
858,6, T_Scon, T_Scon_UGLG,493.4, hit,1,0
859,6, T_Sinc, T_Sinc_DGLG,684.8, hit,1,0
860,6, T_Sinc, T_Sinc_DGLG,584.2, hit,1,0
861,6, T_Sinc, T_Sinc_URRR,443.7, hit,2,0
862,6, T_Sinc, T_Sinc_DGLG,479.2, hit,1,0
863,7, T_Sinc, T_Sinc_DGLG,341.6, hit,1,0
864,7, T_Sinc, T_Sinc_DGLG,385, hit,1,0
865,7, T_Sinc, T_Sinc_URRR,420.4, hit,2,0
866,7, T_Scon, T_Scon_DRRR,511.9, hit,2,0
867,7, T_Sinc, T_Sinc_DGLG,471.4, hit,1,0
868,7, T_Sinc, T_Sinc_DGLG,370.7, hit,1,0
869,7, T_Scon, T_Scon_UGLG,458.2, hit,1,0
870,7, T_Scon, T_Scon_DRRR,409.7, hit,2,0
871,7, T_Scon, T_Scon_DRRR,485.1, hit,2,0
872,7, T_Sinc, T_Sinc_DGLG,380.5, hit,1,0
873,7, T_Sinc, T_Sinc_URRR,448, hit,2,0
874,7, T_Sinc, T_Sinc_DGLG,511.4, hit,1,0
875,7, T_Sinc, T_Sinc_URRR,530.8, hit,2,0
876,7, T_Sinc, T_Sinc_DGLG,362.3, hit,1,0
877,7, T_Sinc, T_Sinc_DGLG,509.7, hit,1,0
878,7, T_Scon, T_Scon_DRRR,541.1, hit,2,0
879,7, T_Scon, T_Scon_UGLG,528.6, hit,1,0
880,7, T_Scon, T_Scon_UGLG,376, hit,1,0
881,7, T_Scon, T_Scon_DRRR,699.4, hit,2,0
882,7, T_Scon, T_Scon_UGLG,482.9, hit,1,0
883,7, T_Sinc, T_Sinc_URRR,602.3, hit,2,0
884,7, T_Scon, T_Scon_DRRR,777.8, hit,2,0
885,7, T_Sinc, T_Sinc_URRR,425.2, hit,2,0
886,7, T_Scon, T_Scon_UGLG,456.6, hit,1,0
887,7, T_Scon, T_Scon_DRRR,484.1, hit,2,0
888,7, T_Scon, T_Scon_DRRR,487.5, hit,2,0
889,7, T_Scon, T_Scon_UGLG,438.9, hit,1,0
890,7, T_Scon, T_Scon_UGLG,354.4, hit,1,0
891,7, T_Scon, T_Scon_UGLG,453.9, hit,1,0
892,7, T_Sinc, T_Sinc_URRR,581.2, hit,2,0
893,7, T_Scon, T_Scon_DRRR,648.7, hit,2,0
894,7, T_Scon, T_Scon_DRRR,604.1, hit,2,0
895,7, T_Scon, T_Scon_UGLG,695.5, hit,1,0
896,7, T_Scon, T_Scon_DRRR,607, hit,2,0
897,7, T_Scon, T_Scon_DRRR,594.5, hit,2,0
898,7, T_Scon, T_Scon_DRRR,617.8, hit,2,0
899,7, T_Sinc, T_Sinc_URRR,437, hit,2,0
900,7, T_Scon, T_Scon_DRRR,368.5, hit,2,0
901,7, T_Scon, T_Scon_DRRR,347.9, hit,2,0
902,7, T_Scon, T_Scon_UGLG,511.3, hit,1,0
903,7, T_Scon, T_Scon_UGLG,442.8, hit,1,0
904,7, T_Scon, T_Scon_DRRR,578.2, hit,2,0
905,7, T_Scon, T_Scon_UGLG,525.6, hit,1,0
906,7, T_Scon, T_Scon_DRRR,401.1, hit,2,0
907,7, T_Scon, T_Scon_DRRR,508.5, hit,2,0
908,7, T_Scon, T_Scon_DRRR,391.9, hit,2,0
909,7, T_Sinc, T_Sinc_URRR,511.4, hit,2,0
910,7, T_Sinc, T_Sinc_DGLG,522.9, hit,1,0
911,7, T_Scon, T_Scon_DRRR,742.2, hit,2,0
912,7, T_Scon, T_Scon_UGLG,521.7, hit,1,0
913,7, T_Scon, T_Scon_DRRR,593.2, hit,2,0
914,7, T_Scon, T_Scon_UGLG,488.5, hit,1,0
915,7, T_Scon, T_Scon_UGLG,644, hit,1,0
916,7, T_Scon, T_Scon_UGLG,455.5, hit,1,0
917,7, T_Scon, T_Scon_DRRR,434.9, hit,2,0
918,7, T_Scon, T_Scon_UGLG,674.3, hit,1,0
919,7, T_Sinc, T_Sinc_DGLG,733.8, hit,1,0
920,7, T_Scon, T_Scon_DRRR,673.2, hit,2,0
921,7, T_Scon, T_Scon_UGLG,572.6, hit,1,0
922,7, T_Scon, T_Scon_UGLG,480, hit,1,0
923,7, T_Scon, T_Scon_UGLG,427.5, hit,1,0
924,7, T_Scon, T_Scon_UGLG,318.9, hit,1,0
925,7, T_Scon, T_Scon_DRRR,466.4, hit,2,0
926,7, T_Scon, T_Scon_UGLG,749.8, hit,1,0
927,7, T_Scon, T_Scon_UGLG,681.2, hit,1,0
928,7, T_Scon, T_Scon_DRRR,416.6, hit,2,0
929,7, T_Scon, T_Scon_UGLG,552.1, hit,1,0
930,7, T_Scon, T_Scon_DRRR,1143.6, hit,2,2
931,7, T_Scon, T_Scon_UGLG,482.9, hit,1,0
932,7, T_Scon, T_Scon_UGLG,502.4, hit,1,0
933,7, T_Scon, T_Scon_UGLG,521.9, hit,1,0
934,7, T_Scon, T_Scon_UGLG,365.3, hit,1,0
935,7, T_Scon, T_Scon_UGLG,556.5, hit,1,0
936,7, T_Scon, T_Scon_DRRR,463.9, hit,2,0
937,7, T_Scon, T_Scon_DRRR,451.3, hit,2,0
938,7, T_Scon, T_Scon_UGLG,486.7, hit,1,0
939,7, T_Scon, T_Scon_UGLG,302.2, hit,1,0
940,7, T_Scon, T_Scon_DRRR,737.7, hit,2,0
941,7, T_Scon, T_Scon_DRRR,397, hit,2,0
942,7, T_Scon, T_Scon_DRRR,416.5, hit,2,0
943,7, T_Scon, T_Scon_DRRR,352, hit,2,0
944,7, T_Scon, T_Scon_DRRR,363.4, hit,2,0
945,7, T_Scon, T_Scon_DRRR,374.8, hit,2,0
946,7, T_Scon, T_Scon_UGLG,446.3, hit,1,0
947,7, T_Scon, T_Scon_UGLG,553.7, hit,1,0
948,7, T_Scon, T_Scon_DRRR,453.1, hit,2,0
949,7, T_Scon, T_Scon_UGLG,416.6, hit,1,0
950,7, T_Sinc, T_Sinc_URRR,480, hit,2,0
951,7, T_Sinc, T_Sinc_URRR,427.4, hit,2,0
952,7, T_Scon, T_Scon_DRRR,650.9, hit,2,0
953,7, T_Scon, T_Scon_DRRR,378.3, hit,2,0
954,7, T_Scon, T_Scon_UGLG,533.8, hit,1,0
955,7, T_Scon, T_Scon_UGLG,337.2, hit,1,0
956,7, T_Scon, T_Scon_UGLG,344.6, hit,1,0
957,7, T_Sinc, T_Sinc_DGLG,412.1, hit,1,0
958,7, T_Sinc, T_Sinc_URRR,771.5, hit,2,0
959,7, T_Scon, T_Scon_UGLG,606.9, hit,1,0
960,7, T_Sinc, T_Sinc_URRR,674.4, hit,2,0
961,7, T_Scon, T_Scon_UGLG,597.8, hit,1,0
962,7, T_Scon, T_Scon_DRRR,577.2, hit,2,0
963,7, T_Sinc, T_Sinc_URRR,852.7, hit,2,0
964,7, T_Sinc, T_Sinc_URRR,444.1, hit,2,0
965,7, T_Scon, T_Scon_DRRR,487.5, hit,2,0
966,7, T_Sinc, T_Sinc_DGLG,459, hit,1,0
967,7, T_Scon, T_Scon_UGLG,458.4, hit,1,0
968,7, T_Scon, T_Scon_UGLG,613.8, hit,1,0
969,7, T_Scon, T_Scon_UGLG,417.3, hit,1,0
970,7, T_Sinc, T_Sinc_DGLG,532.8, hit,1,0
971,7, T_Scon, T_Scon_DRRR,452, hit,2,0
972,7, T_Scon, T_Scon_UGLG,579.3, hit,1,0
973,7, T_Sinc, T_Sinc_URRR,518.8, hit,2,0
974,7, T_Scon, T_Scon_UGLG,402.2, hit,1,0
975,7, T_Scon, T_Scon_UGLG,425.6, hit,1,0
976,7, T_Sinc, T_Sinc_DGLG,389.1, hit,1,0
977,7, T_Scon, T_Scon_UGLG,340.6, hit,1,0
978,7, T_Sinc, T_Sinc_DGLG,423.9, hit,1,0
979,7, T_Scon, T_Scon_DRRR,543.4, hit,2,0
980,7, T_Sinc, T_Sinc_URRR,498.8, hit,2,0
981,7, T_Scon, T_Scon_DRRR,374.2, hit,2,0
982,7, T_Scon, T_Scon_DRRR,449.7, hit,2,0
983,7, T_Sinc, T_Sinc_DGLG,473.2, hit,1,0
984,7, T_Sinc, T_Sinc_DGLG,344.6, hit,1,0
985,7, T_Scon, T_Scon_UGLG,540, hit,1,0
986,7, T_Scon, T_Scon_UGLG,495.4, hit,1,0
987,7, T_Sinc, T_Sinc_DGLG,326.9, hit,1,0
988,7, T_Scon, T_Scon_DRRR,474.3, hit,2,0
989,7, T_Scon, T_Scon_UGLG,629.7, hit,1,0
990,7, T_Scon, T_Scon_DRRR,465.2, hit,2,0
991,7, T_Scon, T_Scon_DRRR,460.6, hit,2,0
992,7, T_Scon, T_Scon_DRRR,388, hit,2,0
993,7, T_Sinc, T_Sinc_URRR,455.5, hit,2,0
994,7, T_Scon, T_Scon_DRRR,387, hit,2,0
995,7, T_Sinc, T_Sinc_URRR,914.3, hit,2,2
996,7, T_Scon, T_Scon_DRRR,469.8, hit,2,0
997,7, T_Scon, T_Scon_UGLG,449.3, hit,1,0
998,7, T_Scon, T_Scon_UGLG,544.6, hit,1,0
999,7, T_Scon, T_Scon_UGLG,376.1, hit,1,0
1000,7, T_Scon, T_Scon_DRRR,531.5, hit,2,0
1001,7, T_Scon, T_Scon_DRRR,486.9, hit,2,0
1002,7, T_Scon, T_Scon_DRRR,582.4, hit,2,0
1003,7, T_Scon, T_Scon_DRRR,433.9, hit,2,0
1004,7, T_Scon, T_Scon_DRRR,285.3, hit,2,0
1005,7, T_Scon, T_Scon_UGLG,496.7, hit,1,0
1006,7, T_Scon, T_Scon_UGLG,364.2, hit,1,0
1007,8, T_Scon, T_Scon_UGLG,430, hit,1,0
1008,8, T_Scon, T_Scon_UGLG,313.5, hit,1,0
1009,8, T_Scon, T_Scon_DRRR,429, hit,2,0
1010,8, T_Sinc, T_Sinc_DGLG,584.3, hit,1,0
1011,8, T_Scon, T_Scon_DRRR,459.8, hit,2,0
1012,8, T_Scon, T_Scon_UGLG,435.3, hit,1,0
1013,8, T_Scon, T_Scon_DRRR,462.6, hit,2,0
1014,8, T_Scon, T_Scon_DRRR,434.1, hit,2,0
1015,8, T_Sinc, T_Sinc_URRR,421.6, hit,2,0
1016,8, T_Scon, T_Scon_DRRR,304.9, hit,2,0
1017,8, T_Scon, T_Scon_DRRR,356.4, hit,2,0
1018,8, T_Scon, T_Scon_UGLG,427.9, hit,1,0
1019,8, T_Scon, T_Scon_UGLG,363.2, hit,1,0
1020,8, T_Scon, T_Scon_UGLG,390.7, hit,1,0
1021,8, T_Sinc, T_Sinc_DGLG,334.2, hit,1,0
1022,8, T_Scon, T_Scon_UGLG,321.5, hit,1,0
1023,8, T_Scon, T_Scon_UGLG,381, hit,1,0
1024,8, T_Sinc, T_Sinc_DGLG,336.5, hit,1,0
1025,8, T_Scon, T_Scon_UGLG,899.8, hit,1,2
1026,8, T_Scon, T_Scon_UGLG,439.3, hit,1,0
1027,8, T_Scon, T_Scon_DRRR,474.8, hit,2,0
1028,8, T_Scon, T_Scon_DRRR,330.2, hit,2,0
1029,8, T_Sinc, T_Sinc_DGLG,529.6, hit,1,0
1030,8, T_Scon, T_Scon_DRRR,509.1, hit,2,0
1031,8, T_Scon, T_Scon_DRRR,488.6, hit,2,0
1032,8, T_Sinc, T_Sinc_URRR,599.9, hit,2,0
1033,8, T_Scon, T_Scon_DRRR,515.4, hit,2,0
1034,8, T_Scon, T_Scon_UGLG,462.8, hit,1,0
1035,8, T_Scon, T_Scon_UGLG,394.3, hit,1,0
1036,8, T_Scon, T_Scon_DRRR,417.7, hit,2,0
1037,8, T_Scon, T_Scon_DRRR,365.2, hit,2,0
1038,8, T_Sinc, T_Sinc_URRR,348.6, hit,2,0
1039,8, T_Scon, T_Scon_UGLG,440, hit,1,0
1040,8, T_Scon, T_Scon_DRRR,439.5, hit,2,0
1041,8, T_Scon, T_Scon_UGLG,482.9, hit,1,0
1042,8, T_Sinc, T_Sinc_DGLG,518.3, hit,1,0
1043,8, T_Scon, T_Scon_DRRR,437.6, hit,2,0
1044,8, T_Scon, T_Scon_DRRR,416.9, hit,2,0
1045,8, T_Scon, T_Scon_UGLG,456.3, hit,1,0
1046,8, T_Scon, T_Scon_DRRR,427.8, hit,2,0
1047,8, T_Scon, T_Scon_DRRR,335.2, hit,2,0
1048,8, T_Sinc, T_Sinc_URRR,466.7, hit,2,0
1049,8, T_Sinc, T_Sinc_URRR,430.1, hit,2,0
1050,8, T_Sinc, T_Sinc_DGLG,465.5, hit,1,0
1051,8, T_Scon, T_Scon_DRRR,709, hit,2,0
1052,8, T_Sinc, T_Sinc_DGLG,568.4, hit,1,0
1053,8, T_Scon, T_Scon_DRRR,527.8, hit,2,0
1054,8, T_Sinc, T_Sinc_DGLG,419.3, hit,1,0
1055,8, T_Scon, T_Scon_UGLG,410.6, hit,1,0
1056,8, T_Scon, T_Scon_UGLG,374.2, hit,1,0
1057,8, T_Scon, T_Scon_UGLG,337.6, hit,1,0
1058,8, T_Scon, T_Scon_UGLG,509, hit,1,0
1059,8, T_Scon, T_Scon_UGLG,320.4, hit,1,0
1060,8, T_Scon, T_Scon_UGLG,339.9, hit,1,0
1061,8, T_Sinc, T_Sinc_DGLG,383.4, hit,1,0
1062,8, T_Scon, T_Scon_UGLG,394.7, hit,1,0
1063,8, T_Scon, T_Scon_DRRR,378.2, hit,2,0
1064,8, T_Scon, T_Scon_UGLG,637.7, hit,1,0
1065,8, T_Sinc, T_Sinc_URRR,381.1, hit,2,0
1066,8, T_Scon, T_Scon_UGLG,500.5, hit,1,0
1067,8, T_Scon, T_Scon_DRRR,408, hit,2,0
1068,8, T_Scon, T_Scon_UGLG,423.4, hit,1,0
1069,8, T_Scon, T_Scon_DRRR,454.8, hit,2,0
1070,8, T_Scon, T_Scon_UGLG,518.3, hit,1,0
1071,8, T_Scon, T_Scon_DRRR,489.7, hit,2,0
1072,8, T_Scon, T_Scon_UGLG,485.1, hit,1,0
1073,8, T_Sinc, T_Sinc_URRR,616.6, hit,2,0
1074,8, T_Scon, T_Scon_DRRR,612, hit,2,0
1075,8, T_Scon, T_Scon_DRRR,455.4, hit,2,0
1076,8, T_Scon, T_Scon_UGLG,474.9, hit,1,0
1077,8, T_Scon, T_Scon_DRRR,502.3, hit,2,0
1078,8, T_Scon, T_Scon_DRRR,581.8, hit,2,0
1079,8, T_Scon, T_Scon_DRRR,472.9, hit,2,0
1080,8, T_Sinc, T_Sinc_DGLG,532.3, hit,1,0
1081,8, T_Scon, T_Scon_UGLG,351.8, hit,1,0
1082,8, T_Scon, T_Scon_UGLG,371.2, hit,1,0
1083,8, T_Scon, T_Scon_DRRR,322.6, hit,2,0
1084,8, T_Scon, T_Scon_UGLG,430.1, hit,1,0
1085,8, T_Sinc, T_Sinc_DGLG,345.5, hit,1,0
1086,8, T_Scon, T_Scon_DRRR,452.9, hit,2,0
1087,8, T_Scon, T_Scon_DRRR,324.4, hit,2,0
1088,8, T_Scon, T_Scon_DRRR,455.8, hit,2,0
1089,8, T_Scon, T_Scon_DRRR,335.2, hit,2,0
1090,8, T_Sinc, T_Sinc_DGLG,586.7, incorrect,2,1
1091,8, T_Sinc, T_Sinc_DGLG,466.2, hit,1,0
1092,8, T_Sinc, T_Sinc_URRR,437.5, hit,2,0
1093,8, T_Scon, T_Scon_UGLG,445, hit,1,0
1094,8, T_Scon, T_Scon_DRRR,532.5, hit,2,0
1095,8, T_Scon, T_Scon_DRRR,467.8, hit,2,0
1096,8, T_Sinc, T_Sinc_DGLG,383.3, hit,1,0
1097,8, T_Scon, T_Scon_UGLG,374.8, hit,1,0
1098,8, T_Scon, T_Scon_DRRR,466.2, hit,2,0
1099,8, T_Sinc, T_Sinc_DGLG,565.6, hit,1,0
1100,8, T_Scon, T_Scon_UGLG,721.1, hit,1,0
1101,8, T_Scon, T_Scon_DRRR,732.6, hit,2,0
1102,8, T_Scon, T_Scon_UGLG,599.9, hit,1,0
1103,8, T_Sinc, T_Sinc_URRR,755.4, hit,2,0
1104,8, T_Scon, T_Scon_DRRR,702.8, hit,2,0
1105,8, T_Scon, T_Scon_DRRR,618.2, hit,2,0
1106,8, T_Scon, T_Scon_UGLG,621.7, hit,1,0
1107,8, T_Scon, T_Scon_DRRR,609.1, hit,2,0
1108,8, T_Scon, T_Scon_UGLG,636.6, hit,1,0
1109,8, T_Scon, T_Scon_DRRR,552, hit,2,0
1110,8, T_Scon, T_Scon_UGLG,559.4, hit,1,0
1111,8, T_Scon, T_Scon_UGLG,434.9, hit,1,0
1112,8, T_Scon, T_Scon_DRRR,474.3, hit,2,0
1113,8, T_Sinc, T_Sinc_URRR,805.8, hit,2,0
1114,8, T_Scon, T_Scon_UGLG,765.2, hit,1,0
1115,8, T_Sinc, T_Sinc_DGLG,440.4, hit,1,0
1116,8, T_Scon, T_Scon_UGLG,471.8, hit,1,0
1117,8, T_Scon, T_Scon_DRRR,363.2, hit,2,0
1118,8, T_Sinc, T_Sinc_URRR,442.7, hit,2,0
1119,8, T_Sinc, T_Sinc_DGLG,426.1, hit,1,0
1120,8, T_Scon, T_Scon_DRRR,345.5, hit,2,0
1121,8, T_Scon, T_Scon_UGLG,397, hit,1,0
1122,8, T_Sinc, T_Sinc_URRR,560.4, hit,2,0
1123,8, T_Scon, T_Scon_UGLG,575.8, hit,1,0
1124,8, T_Scon, T_Scon_UGLG,383.3, hit,1,0
1125,8, T_Scon, T_Scon_UGLG,402.7, hit,1,0
1126,8, T_Scon, T_Scon_DRRR,398.1, hit,2,0
1127,8, T_Scon, T_Scon_UGLG,385.6, hit,1,0
1128,8, T_Scon, T_Scon_UGLG,313.1, hit,1,0
1129,8, T_Sinc, T_Sinc_URRR,424.4, hit,2,0
1130,8, T_Sinc, T_Sinc_URRR,367.9, hit,2,0
1131,8, T_Scon, T_Scon_DRRR,511.4, hit,2,0
1132,8, T_Scon, T_Scon_UGLG,394.7, hit,1,0
1133,8, T_Scon, T_Scon_UGLG,310.2, hit,1,0
1134,8, T_Sinc, T_Sinc_URRR,429.7, hit,2,0
1135,8, T_Scon, T_Scon_DRRR,465, hit,2,0
1136,8, T_Scon, T_Scon_DRRR,444.5, hit,2,0
1137,8, T_Scon, T_Scon_DRRR,431.9, hit,2,0
1138,8, T_Scon, T_Scon_DRRR,299.3, hit,2,0
1139,8, T_Sinc, T_Sinc_URRR,310.8, hit,2,0
1140,8, T_Scon, T_Scon_DRRR,370.2, hit,2,0
1141,8, T_Scon, T_Scon_DRRR,285.7, hit,2,0
1142,8, T_Scon, T_Scon_DRRR,309.1, hit,2,0
1143,8, T_Scon, T_Scon_UGLG,496.5, hit,1,0
1144,8, T_Scon, T_Scon_UGLG,324, hit,1,0
1145,8, T_Sinc, T_Sinc_DGLG,299.4, hit,1,0
1146,8, T_Sinc, T_Sinc_URRR,842.9, hit,2,0
1147,8, T_Scon, T_Scon_UGLG,358.3, hit,1,0
1148,8, T_Scon, T_Scon_UGLG,289.8, hit,1,0
1149,8, T_Sinc, T_Sinc_URRR,489.2, hit,2,0
1150,8, T_Scon, T_Scon_UGLG,396.6, hit,1,0
1151,9, T_Sinc, T_Sinc_URRR,490.1, hit,2,0
1152,9, T_Sinc, T_Sinc_DGLG,397.4, hit,1,0
1153,9, T_Scon, T_Scon_UGLG,320.9, hit,1,0
1154,9, T_Scon, T_Scon_DRRR,476.3, hit,2,0
1155,9, T_Scon, T_Scon_DRRR,371.7, hit,2,0
1156,9, T_Scon, T_Scon_DRRR,371.2, hit,2,0
1157,9, T_Scon, T_Scon_DRRR,414.6, hit,2,0
1158,9, T_Scon, T_Scon_UGLG,486, hit,1,0
1159,9, T_Scon, T_Scon_DRRR,421.5, hit,2,0
1160,9, T_Scon, T_Scon_UGLG,385, hit,1,0
1161,9, T_Scon, T_Scon_UGLG,320.3, hit,1,0
1162,9, T_Scon, T_Scon_DRRR,427.8, hit,2,0
1163,9, T_Scon, T_Scon_UGLG,387.3, hit,1,0
1164,9, T_Sinc, T_Sinc_URRR,546.6, hit,2,0
1165,9, T_Sinc, T_Sinc_URRR,430.1, incorrect,1,1
1166,9, T_Scon, T_Scon_UGLG,697.6, hit,1,0
1167,9, T_Sinc, T_Sinc_URRR,508.9, hit,2,0
1168,9, T_Sinc, T_Sinc_DGLG,528.4, hit,1,0
1169,9, T_Scon, T_Scon_DRRR,427.9, hit,2,0
1170,9, T_Scon, T_Scon_UGLG,435.3, hit,1,0
1171,9, T_Scon, T_Scon_DRRR,430.7, hit,2,0
1172,9, T_Scon, T_Scon_DRRR,438.2, hit,2,0
1173,9, T_Scon, T_Scon_UGLG,473.6, hit,1,0
1174,9, T_Scon, T_Scon_DRRR,425, hit,2,0
1175,9, T_Scon, T_Scon_UGLG,444.5, hit,1,0
1176,9, T_Scon, T_Scon_UGLG,487.9, incorrect,2,1
1177,9, T_Scon, T_Scon_UGLG,303.3, hit,1,0
1178,9, T_Scon, T_Scon_UGLG,450.8, hit,1,0
1179,9, T_Sinc, T_Sinc_DGLG,630.2, hit,1,0
1180,9, T_Scon, T_Scon_UGLG,609.7, hit,1,0
1181,9, T_Scon, T_Scon_UGLG,697.1, hit,1,0
1182,9, T_Scon, T_Scon_DRRR,736.5, hit,2,0
1183,9, T_Scon, T_Scon_DRRR,624, hit,2,0
1184,9, T_Sinc, T_Sinc_DGLG,551.4, hit,1,0
1185,9, T_Sinc, T_Sinc_DGLG,806.8, hit,1,0
1186,9, T_Sinc, T_Sinc_URRR,726.3, hit,2,0
1187,9, T_Scon, T_Scon_UGLG,481.5, hit,1,0
1188,9, T_Scon, T_Scon_DRRR,476.9, hit,2,0
1189,9, T_Scon, T_Scon_UGLG,496.3, hit,1,0
1190,9, T_Sinc, T_Sinc_URRR,515.8, hit,2,0
1191,9, T_Sinc, T_Sinc_DGLG,483.1, hit,1,0
1192,9, T_Scon, T_Scon_UGLG,438.6, hit,1,0
1193,9, T_Scon, T_Scon_DRRR,502.1, hit,2,0
1194,9, T_Scon, T_Scon_DRRR,545.4, hit,2,0
1195,9, T_Scon, T_Scon_DRRR,524.9, hit,2,0
1196,9, T_Sinc, T_Sinc_URRR,500.4, hit,2,0
1197,9, T_Scon, T_Scon_UGLG,699.7, hit,1,0
1198,9, T_Sinc, T_Sinc_URRR,647.2, hit,2,0
1199,9, T_Scon, T_Scon_UGLG,554.7, hit,1,0
1200,9, T_Scon, T_Scon_UGLG,674.1, hit,1,0
1201,9, T_Scon, T_Scon_DRRR,629.5, hit,2,0
1202,9, T_Sinc, T_Sinc_URRR,777, hit,2,0
1203,9, T_Scon, T_Scon_DRRR,1024.5, hit,2,2
1204,9, T_Scon, T_Scon_DRRR,895.8, hit,2,2
1205,9, T_Sinc, T_Sinc_URRR,651.3, hit,2,0
1206,9, T_Scon, T_Scon_DRRR,462.8, hit,2,0
1207,9, T_Scon, T_Scon_DRRR,514.1, hit,2,0
1208,9, T_Scon, T_Scon_DRRR,685.6, hit,2,0
1209,9, T_Scon, T_Scon_UGLG,697.1, hit,1,0
1210,9, T_Scon, T_Scon_DRRR,588.4, hit,2,0
1211,9, T_Scon, T_Scon_UGLG,487.9, hit,1,0
1212,9, T_Scon, T_Scon_UGLG,651.4, hit,1,0
1213,9, T_Sinc, T_Sinc_URRR,590.7, hit,2,0
1214,9, T_Scon, T_Scon_UGLG,618.2, hit,1,0
1215,9, T_Scon, T_Scon_UGLG,461.7, hit,1,0
1216,9, T_Scon, T_Scon_UGLG,489.1, hit,1,0
1217,9, T_Scon, T_Scon_UGLG,404.6, hit,1,0
1218,9, T_Sinc, T_Sinc_DGLG,392, hit,1,0
1219,9, T_Sinc, T_Sinc_URRR,587.4, hit,2,0
1220,9, T_Sinc, T_Sinc_DGLG,726.8, hit,1,0
1221,9, T_Sinc, T_Sinc_URRR,650.3, hit,2,0
1222,9, T_Scon, T_Scon_DRRR,661.7, hit,2,0
1223,9, T_Scon, T_Scon_UGLG,540.9, hit,1,0
1224,9, T_Scon, T_Scon_UGLG,376.3, hit,1,0
1225,9, T_Scon, T_Scon_DRRR,607.7, hit,2,0
1226,9, T_Scon, T_Scon_DRRR,391.2, hit,2,0
1227,9, T_Scon, T_Scon_UGLG,498.7, hit,1,0
1228,9, T_Scon, T_Scon_UGLG,398.1, hit,1,0
1229,9, T_Scon, T_Scon_UGLG,361.5, hit,1,0
1230,9, T_Scon, T_Scon_UGLG,437, hit,1,0
1231,9, T_Scon, T_Scon_DRRR,664.3, hit,2,0
1232,9, T_Scon, T_Scon_UGLG,755.8, hit,1,0
1233,9, T_Scon, T_Scon_DRRR,755.2, hit,2,0
1234,9, T_Scon, T_Scon_DRRR,570.7, hit,2,0
1235,9, T_Scon, T_Scon_DRRR,542.1, hit,2,0
1236,9, T_Scon, T_Scon_UGLG,501.6, hit,1,0
1237,9, T_Scon, T_Scon_DRRR,429, hit,2,0
1238,9, T_Scon, T_Scon_DRRR,584.4, hit,2,0
1239,9, T_Scon, T_Scon_UGLG,635.9, hit,1,0
1240,9, T_Scon, T_Scon_DRRR,495.3, hit,2,0
1241,9, T_Scon, T_Scon_DRRR,402.7, hit,2,0
1242,9, T_Sinc, T_Sinc_DGLG,614.2, hit,1,0
1243,9, T_Sinc, T_Sinc_DGLG,465.6, hit,1,0
1244,9, T_Scon, T_Scon_UGLG,565, hit,1,0
1245,9, T_Scon, T_Scon_DRRR,556.5, hit,2,0
1246,9, T_Scon, T_Scon_DRRR,988, hit,2,2
1247,9, T_Scon, T_Scon_UGLG,631.3, hit,1,0
1248,9, T_Sinc, T_Sinc_URRR,450.8, hit,2,0
1249,9, T_Scon, T_Scon_UGLG,570.2, hit,1,0
1250,9, T_Sinc, T_Sinc_DGLG,413.7, hit,1,0
1251,9, T_Scon, T_Scon_DRRR,585.1, hit,2,0
1252,9, T_Scon, T_Scon_UGLG,732.5, hit,1,0
1253,9, T_Scon, T_Scon_UGLG,576, hit,1,0
1254,9, T_Scon, T_Scon_UGLG,851.4, hit,1,2
1255,9, T_Sinc, T_Sinc_URRR,622.9, hit,2,0
1256,9, T_Scon, T_Scon_DRRR,794.3, hit,2,0
1257,9, T_Scon, T_Scon_DRRR,721.7, hit,2,0
1258,9, T_Sinc, T_Sinc_URRR,797.1, hit,2,0
1259,9, T_Scon, T_Scon_UGLG,552.3, hit,1,0
1260,9, T_Scon, T_Scon_DRRR,395.7, hit,2,0
1261,9, T_Scon, T_Scon_DRRR,527.2, hit,2,0
1262,9, T_Scon, T_Scon_UGLG,350.6, hit,1,0
1263,9, T_Scon, T_Scon_UGLG,578.1, hit,1,0
1264,9, T_Sinc, T_Sinc_DGLG,389.5, hit,1,0
1265,9, T_Scon, T_Scon_DRRR,464.9, hit,2,0
1266,9, T_Scon, T_Scon_UGLG,416.4, hit,1,0
1267,9, T_Scon, T_Scon_DRRR,475.8, hit,2,0
1268,9, T_Scon, T_Scon_DRRR,475.2, hit,2,0
1269,9, T_Sinc, T_Sinc_URRR,446.6, hit,2,0
1270,9, T_Scon, T_Scon_DRRR,394.1, hit,2,0
1271,9, T_Scon, T_Scon_DRRR,597.6, hit,2,0
1272,9, T_Scon, T_Scon_UGLG,613, hit,1,0
1273,9, T_Scon, T_Scon_DRRR,712.4, hit,2,0
1274,9, T_Scon, T_Scon_DRRR,627.8, hit,2,0
1275,9, T_Sinc, T_Sinc_DGLG,619.3, hit,1,0
1276,9, T_Sinc, T_Sinc_DGLG,662.8, hit,1,0
1277,9, T_Scon, T_Scon_DRRR,810.1, hit,2,0
1278,9, T_Scon, T_Scon_UGLG,709.6, hit,1,0
1279,9, T_Scon, T_Scon_UGLG,713.1, hit,1,0
1280,9, T_Scon, T_Scon_DRRR,536.4, hit,2,0
1281,9, T_Sinc, T_Sinc_DGLG,491.9, hit,1,0
1282,9, T_Scon, T_Scon_UGLG,575.4, hit,1,0
1283,9, T_Scon, T_Scon_UGLG,622.7, hit,1,0
1284,9, T_Scon, T_Scon_UGLG,426.2, hit,1,0
1285,9, T_Scon, T_Scon_DRRR,713.7, hit,2,0
1286,9, T_Sinc, T_Sinc_URRR,669, hit,2,0
1287,9, T_Scon, T_Scon_DRRR,772.5, hit,2,0
1288,9, T_Scon, T_Scon_DRRR,692, hit,2,0
1289,9, T_Scon, T_Scon_UGLG,687.4, hit,1,0
1290,9, T_Sinc, T_Sinc_DGLG,854.8, hit,1,0
1291,9, T_Sinc, T_Sinc_DGLG,802.3, hit,1,0
1292,9, T_Scon, T_Scon_DRRR,949.7, hit,2,2
1293,9, T_Scon, T_Scon_UGLG,545.2, hit,1,0
1294,9, T_Sinc, T_Sinc_DGLG,636.5, hit,1,0
