trial_index, block, condition, full_condition_code, RT, response_type, response_key, error_outlier
1,1, T_Scon, T_Scon_UGLG,417, hit,1,0
2,1, T_Scon, T_Scon_DRRR,324.5, hit,2,0
3,1, T_Scon, T_Scon_UGLG,299.8, hit,1,0
4,1, T_Sinc, T_Sinc_DGLG,327.3, incorrect,2,1
5,1, T_Sinc, T_Sinc_DGLG,394.8, incorrect,2,1
6,1, T_Sinc, T_Sinc_URRR,586.2, hit,2,0
7,1, T_Sinc, T_Sinc_DGLG,357.7, hit,1,0
8,1, T_Sinc, T_Sinc_URRR,585, hit,2,0
9,1, T_Scon, T_Scon_UGLG,488.5, hit,1,0
10,1, T_Scon, T_Scon_UGLG,500, hit,1,0
11,1, T_Scon, T_Scon_UGLG,335.3, hit,1,0
12,1, T_Sinc, T_Sinc_URRR,310.8, incorrect,1,1
13,1, T_Sinc, T_Sinc_DGLG,322.3, hit,1,0
14,1, T_Sinc, T_Sinc_URRR,429.7, hit,2,0
15,1, T_Sinc, T_Sinc_URRR,697.1, hit,2,0
16,1, T_Scon, T_Scon_DRRR,404.6, hit,2,0
17,1, T_Sinc, T_Sinc_URRR,544, hit,2,0
18,1, T_Sinc, T_Sinc_DGLG,363.5, hit,1,0
19,1, T_Sinc, T_Sinc_DGLG,534.9, hit,1,0
20,1, T_Scon, T_Scon_UGLG,366.3, hit,1,0
21,1, T_Scon, T_Scon_UGLG,361.8, hit,1,0
22,1, T_Sinc, T_Sinc_URRR,641.1, hit,2,0
23,1, T_Sinc, T_Sinc_URRR,456.6, hit,2,0
24,1, T_Sinc, T_Sinc_URRR,444.1, hit,2,0
25,1, T_Scon, T_Scon_DRRR,279.6, incorrect,1,1
26,1, T_Sinc, T_Sinc_DGLG,451, hit,1,0
27,1, T_Scon, T_Scon_UGLG,502.4, hit,1,0
28,1, T_Sinc, T_Sinc_URRR,521.8, hit,2,0
29,1, T_Sinc, T_Sinc_DGLG,305.3, hit,1,0
30,1, T_Scon, T_Scon_UGLG,356.7, hit,1,0
31,1, T_Sinc, T_Sinc_DGLG,372.1, hit,1,0
32,1, T_Sinc, T_Sinc_DGLG,463.6, hit,1,0
33,1, T_Sinc, T_Sinc_DGLG,467, hit,1,0
34,1, T_Sinc, T_Sinc_URRR,350.4, hit,2,0
35,1, T_Sinc, T_Sinc_DGLG,297.9, hit,1,0
36,1, T_Sinc, T_Sinc_DGLG,489.3, hit,1,0
37,1, T_Scon, T_Scon_DRRR,379.9, incorrect,1,1
38,1, T_Sinc, T_Sinc_URRR,319.4, incorrect,1,1
39,1, T_Sinc, T_Sinc_DGLG,354.8, hit,1,0
40,1, T_Scon, T_Scon_DRRR,326.2, hit,2,0
41,1, T_Sinc, T_Sinc_DGLG,341.7, hit,1,0
42,1, T_Sinc, T_Sinc_URRR,333.1, hit,2,0
43,1, T_Sinc, T_Sinc_URRR,472.6, hit,2,0
44,1, T_Sinc, T_Sinc_DGLG,472.1, hit,1,0
45,1, T_Sinc, T_Sinc_DGLG,339.4, hit,1,0
46,1, T_Scon, T_Scon_DRRR,322.9, hit,2,0
47,1, T_Sinc, T_Sinc_URRR,306.4, incorrect,1,1
48,1, T_Sinc, T_Sinc_URRR,357.8, hit,2,0
49,1, T_Sinc, T_Sinc_DGLG,353.2, hit,1,0
50,1, T_Sinc, T_Sinc_URRR,356.7, hit,2,0
51,1, T_Scon, T_Scon_UGLG,344.1, hit,1,0
52,1, T_Sinc, T_Sinc_URRR,387.6, incorrect,1,1
53,1, T_Sinc, T_Sinc_DGLG,406.9, hit,1,0
54,1, T_Sinc, T_Sinc_DGLG,442.4, hit,1,0
55,1, T_Sinc, T_Sinc_DGLG,365.9, hit,1,0
56,1, T_Sinc, T_Sinc_URRR,321.3, hit,2,0
57,1, T_Sinc, T_Sinc_URRR,308.7, incorrect,1,1
58,1, T_Sinc, T_Sinc_DGLG,400.2, hit,1,0
59,1, T_Sinc, T_Sinc_DGLG,879.6, hit,1,2
60,1, T_Sinc, T_Sinc_DGLG,347.1, hit,1,0
61,1, T_Scon, T_Scon_UGLG,426.4, hit,1,0
62,1, T_Sinc, T_Sinc_DGLG,433.9, hit,1,0
63,1, T_Sinc, T_Sinc_DGLG,329.4, hit,1,0
64,1, T_Sinc, T_Sinc_DGLG,328.8, hit,1,0
65,1, T_Sinc, T_Sinc_URRR,344.2, hit,2,0
66,1, T_Sinc, T_Sinc_URRR,539.6, hit,2,0
67,1, T_Sinc, T_Sinc_DGLG,347.1, hit,1,0
68,1, T_Sinc, T_Sinc_DGLG,326.6, hit,1,0
69,1, T_Scon, T_Scon_UGLG,410, hit,1,0
70,1, T_Scon, T_Scon_DRRR,321.4, hit,2,0
71,1, T_Scon, T_Scon_UGLG,324.9, hit,1,0
72,1, T_Sinc, T_Sinc_DGLG,432.1, hit,1,0
73,1, T_Sinc, T_Sinc_DGLG,323.5, hit,1,0
74,1, T_Sinc, T_Sinc_DGLG,298.9, hit,1,0
75,1, T_Scon, T_Scon_UGLG,486.4, incorrect,2,1
76,1, T_Sinc, T_Sinc_DGLG,337.9, hit,1,0
77,1, T_Scon, T_Scon_UGLG,349.3, hit,1,0
78,1, T_Sinc, T_Sinc_URRR,352.7, hit,2,0
79,1, T_Scon, T_Scon_DRRR,376.2, hit,2,0
80,1, T_Scon, T_Scon_DRRR,559.6, hit,2,0
81,1, T_Sinc, T_Sinc_URRR,351.1, hit,2,0
82,1, T_Scon, T_Scon_DRRR,350.4, hit,2,0
83,1, T_Sinc, T_Sinc_DGLG,401.9, hit,1,0
84,1, T_Scon, T_Scon_DRRR,329.4, hit,2,0
85,1, T_Sinc, T_Sinc_URRR,372.7, hit,2,0
86,1, T_Sinc, T_Sinc_URRR,408.2, hit,2,0
87,1, T_Sinc, T_Sinc_DGLG,487.6, hit,1,0
88,1, T_Sinc, T_Sinc_URRR,523.1, hit,2,0
89,1, T_Scon, T_Scon_DRRR,478.5, hit,2,0
90,1, T_Scon, T_Scon_DRRR,378, hit,2,0
91,1, T_Sinc, T_Sinc_DGLG,393.4, hit,1,0
92,1, T_Sinc, T_Sinc_URRR,340.9, hit,2,0
93,1, T_Sinc, T_Sinc_DGLG,376.2, incorrect,2,1
94,1, T_Sinc, T_Sinc_DGLG,379.7, hit,1,0
95,1, T_Sinc, T_Sinc_URRR,479.2, hit,2,0
96,1, T_Sinc, T_Sinc_URRR,570.6, hit,2,0
97,1, T_Sinc, T_Sinc_URRR,538, hit,2,0
98,1, T_Sinc, T_Sinc_URRR,397.5, hit,2,0
99,1, T_Sinc, T_Sinc_DGLG,348.9, hit,1,0
100,1, T_Sinc, T_Sinc_DGLG,356.4, hit,1,0
101,1, T_Sinc, T_Sinc_URRR,335.8, hit,2,0
102,1, T_Sinc, T_Sinc_URRR,631.2, hit,2,0
103,1, T_Sinc, T_Sinc_DGLG,378.7, hit,1,0
104,1, T_Sinc, T_Sinc_DGLG,342.1, incorrect,2,1
105,1, T_Sinc, T_Sinc_URRR,409.5, hit,2,0
106,1, T_Sinc, T_Sinc_URRR,489, hit,2,0
107,1, T_Scon, T_Scon_DRRR,412.5, incorrect,1,1
108,1, T_Sinc, T_Sinc_URRR,475.7, hit,2,0
109,1, T_Sinc, T_Sinc_URRR,431.1, hit,2,0
110,1, T_Sinc, T_Sinc_DGLG,406.5, hit,1,0
111,1, T_Sinc, T_Sinc_URRR,373.9, hit,2,0
112,1, T_Sinc, T_Sinc_DGLG,465.4, hit,1,0
113,1, T_Scon, T_Scon_DRRR,348.9, hit,2,0
114,1, T_Sinc, T_Sinc_URRR,400.3, hit,2,0
115,1, T_Sinc, T_Sinc_URRR,363.7, hit,2,0
116,1, T_Sinc, T_Sinc_URRR,731.2, hit,2,0
117,1, T_Scon, T_Scon_UGLG,370.6, hit,1,0
118,1, T_Sinc, T_Sinc_DGLG,270, hit,1,0
119,1, T_Scon, T_Scon_DRRR,361.4, hit,2,0
120,1, T_Scon, T_Scon_DRRR,412.9, hit,2,0
121,1, T_Sinc, T_Sinc_DGLG,424.4, incorrect,2,1
122,1, T_Sinc, T_Sinc_URRR,319.7, hit,2,0
123,1, T_Scon, T_Scon_UGLG,347.2, hit,1,0
124,1, T_Sinc, T_Sinc_URRR,514.7, hit,2,0
125,1, T_Scon, T_Scon_DRRR,598.1, hit,2,0
126,1, T_Sinc, T_Sinc_URRR,821.5, hit,2,2
127,1, T_Sinc, T_Sinc_DGLG,361, hit,1,0
128,1, T_Sinc, T_Sinc_DGLG,572.4, hit,1,0
129,1, T_Scon, T_Scon_UGLG,279.9, hit,1,0
130,1, T_Sinc, T_Sinc_DGLG,363.3, hit,1,0
131,1, T_Sinc, T_Sinc_DGLG,314.7, hit,1,0
132,1, T_Sinc, T_Sinc_URRR,338.2, hit,2,0
133,1, T_Sinc, T_Sinc_URRR,293.7, hit,2,0
134,1, T_Sinc, T_Sinc_URRR,377, hit,2,0
135,1, T_Sinc, T_Sinc_DGLG,316.5, hit,1,0
136,1, T_Sinc, T_Sinc_URRR,447.9, hit,2,0
137,1, T_Sinc, T_Sinc_DGLG,495.4, hit,1,0
138,1, T_Sinc, T_Sinc_URRR,586.9, hit,2,0
139,1, T_Sinc, T_Sinc_URRR,402.2, hit,2,0
140,1, T_Sinc, T_Sinc_DGLG,333.7, hit,1,0
141,1, T_Sinc, T_Sinc_DGLG,273.2, hit,1,0
142,1, T_Sinc, T_Sinc_URRR,564.5, hit,2,0
143,1, T_Sinc, T_Sinc_URRR,312, hit,2,0
144,2, T_Sinc, T_Sinc_DGLG,344.4, hit,1,0
145,2, T_Sinc, T_Sinc_DGLG,259.8, hit,1,0
146,2, T_Sinc, T_Sinc_DGLG,303.3, hit,1,0
147,2, T_Sinc, T_Sinc_URRR,354.7, hit,2,0
148,2, T_Sinc, T_Sinc_URRR,330.1, hit,2,0
149,2, T_Sinc, T_Sinc_URRR,509.6, hit,2,0
150,2, T_Scon, T_Scon_DRRR,241.1, hit,2,0
151,2, T_Sinc, T_Sinc_DGLG,256.4, hit,1,0
152,2, T_Sinc, T_Sinc_DGLG,283.8, hit,1,0
153,2, T_Sinc, T_Sinc_URRR,295.3, hit,2,0
154,2, T_Sinc, T_Sinc_URRR,462.8, hit,2,0
155,2, T_Scon, T_Scon_UGLG,414.3, hit,1,0
156,2, T_Sinc, T_Sinc_DGLG,329.6, hit,1,0
157,2, T_Scon, T_Scon_DRRR,325.1, hit,2,0
158,2, T_Scon, T_Scon_UGLG,316.6, hit,1,0
159,2, T_Sinc, T_Sinc_URRR,363.9, hit,2,0
160,2, T_Scon, T_Scon_DRRR,407.4, incorrect,1,1
161,2, T_Scon, T_Scon_DRRR,314.8, hit,2,0
162,2, T_Sinc, T_Sinc_URRR,410.3, hit,2,0
163,2, T_Sinc, T_Sinc_URRR,589.7, hit,2,0
164,2, T_Sinc, T_Sinc_URRR,349.1, hit,2,0
165,2, T_Sinc, T_Sinc_DGLG,828.6, hit,1,2
166,2, T_Sinc, T_Sinc_URRR,324.1, hit,2,0
167,2, T_Sinc, T_Sinc_URRR,407.4, hit,2,0
168,2, T_Sinc, T_Sinc_URRR,374.9, hit,2,0
169,2, T_Sinc, T_Sinc_URRR,386.4, hit,2,0
170,2, T_Sinc, T_Sinc_URRR,365.8, hit,2,0
171,2, T_Sinc, T_Sinc_DGLG,717.2, hit,1,0
172,2, T_Sinc, T_Sinc_DGLG,356.6, hit,1,0
173,2, T_Sinc, T_Sinc_DGLG,352.1, incorrect,2,1
174,2, T_Sinc, T_Sinc_DGLG,327.6, hit,1,0
175,2, T_Sinc, T_Sinc_DGLG,315, hit,1,0
176,2, T_Scon, T_Scon_UGLG,422.4, hit,1,0
177,2, T_Sinc, T_Sinc_DGLG,301.9, hit,1,0
178,2, T_Scon, T_Scon_UGLG,529.3, hit,1,0
179,2, T_Scon, T_Scon_DRRR,468.8, hit,2,0
180,2, T_Sinc, T_Sinc_DGLG,491.9, hit,1,0
181,2, T_Sinc, T_Sinc_DGLG,307.4, hit,1,0
182,2, T_Sinc, T_Sinc_URRR,522.8, hit,2,0
183,2, T_Sinc, T_Sinc_URRR,342.3, hit,2,0
184,2, T_Scon, T_Scon_UGLG,329.7, hit,1,0
185,2, T_Sinc, T_Sinc_URRR,453.1, hit,2,0
186,2, T_Sinc, T_Sinc_URRR,576.6, hit,2,0
187,2, T_Sinc, T_Sinc_DGLG,419.9, hit,1,0
188,2, T_Sinc, T_Sinc_URRR,351.4, hit,2,0
189,2, T_Sinc, T_Sinc_DGLG,322.9, hit,1,0
190,2, T_Sinc, T_Sinc_DGLG,366.3, hit,1,0
191,2, T_Sinc, T_Sinc_DGLG,393.7, hit,1,0
192,2, T_Sinc, T_Sinc_URRR,285.2, hit,2,0
193,2, T_Scon, T_Scon_DRRR,364.6, hit,2,0
194,2, T_Scon, T_Scon_UGLG,648.1, hit,1,0
195,2, T_Sinc, T_Sinc_URRR,523.5, hit,2,0
196,2, T_Scon, T_Scon_UGLG,310.9, hit,1,0
197,2, T_Sinc, T_Sinc_DGLG,298.4, hit,1,0
198,2, T_Sinc, T_Sinc_DGLG,369.9, hit,1,0
199,2, T_Scon, T_Scon_UGLG,417.2, hit,1,0
200,2, T_Scon, T_Scon_DRRR,544.7, hit,2,0
201,2, T_Sinc, T_Sinc_URRR,488.1, hit,2,0
202,2, T_Sinc, T_Sinc_URRR,343.6, hit,2,0
203,2, T_Sinc, T_Sinc_URRR,451, hit,2,0
204,2, T_Scon, T_Scon_DRRR,466.5, hit,2,0
205,2, T_Sinc, T_Sinc_URRR,537.9, hit,2,0
206,2, T_Scon, T_Scon_DRRR,341.4, hit,2,0
207,2, T_Sinc, T_Sinc_DGLG,352.7, hit,1,0
208,2, T_Sinc, T_Sinc_URRR,364.2, incorrect,1,1
209,2, T_Sinc, T_Sinc_URRR,503.7, hit,2,0
210,2, T_Sinc, T_Sinc_DGLG,391.1, hit,1,0
211,2, T_Sinc, T_Sinc_DGLG,390.5, hit,1,0
212,2, T_Sinc, T_Sinc_DGLG,406, hit,1,0
213,2, T_Sinc, T_Sinc_URRR,505.4, hit,2,0
214,2, T_Scon, T_Scon_UGLG,332.9, hit,1,0
215,2, T_Scon, T_Scon_DRRR,288.3, hit,2,0
216,2, T_Sinc, T_Sinc_DGLG,327.5, hit,1,0
217,2, T_Sinc, T_Sinc_DGLG,322.9, hit,1,0
218,2, T_Sinc, T_Sinc_DGLG,278.4, hit,1,0
219,2, T_Scon, T_Scon_DRRR,361.7, hit,2,0
220,2, T_Sinc, T_Sinc_URRR,381.2, hit,2,0
221,2, T_Sinc, T_Sinc_DGLG,344.7, hit,1,0
222,2, T_Sinc, T_Sinc_DGLG,300.1, hit,1,0
223,2, T_Sinc, T_Sinc_URRR,327.5, hit,2,0
224,2, T_Sinc, T_Sinc_DGLG,347, hit,1,0
225,2, T_Sinc, T_Sinc_URRR,310.4, hit,2,0
226,2, T_Sinc, T_Sinc_URRR,385.9, hit,2,0
227,2, T_Sinc, T_Sinc_DGLG,353.3, hit,1,0
228,2, T_Sinc, T_Sinc_DGLG,308.7, hit,1,0
229,2, T_Sinc, T_Sinc_URRR,320.2, hit,2,0
230,2, T_Scon, T_Scon_DRRR,339.6, hit,2,0
231,2, T_Sinc, T_Sinc_DGLG,431.1, hit,1,0
232,2, T_Scon, T_Scon_UGLG,474.5, incorrect,2,1
233,2, T_Scon, T_Scon_UGLG,429.9, hit,1,0
234,2, T_Sinc, T_Sinc_DGLG,281.4, incorrect,2,1
235,2, T_Sinc, T_Sinc_URRR,436.8, hit,2,0
236,2, T_Sinc, T_Sinc_DGLG,304.2, hit,1,0
237,2, T_Sinc, T_Sinc_URRR,647.7, hit,2,0
238,2, T_Sinc, T_Sinc_DGLG,451.1, hit,1,0
239,2, T_Sinc, T_Sinc_URRR,266.5, hit,2,0
240,2, T_Sinc, T_Sinc_DGLG,374, hit,1,0
241,2, T_Sinc, T_Sinc_DGLG,425.5, hit,1,0
242,2, T_Scon, T_Scon_DRRR,404.8, hit,2,0
243,2, T_Sinc, T_Sinc_URRR,512.3, hit,2,0
244,2, T_Sinc, T_Sinc_URRR,359.8, hit,2,0
245,2, T_Sinc, T_Sinc_URRR,347.2, hit,2,0
246,2, T_Sinc, T_Sinc_DGLG,334.7, hit,1,0
247,2, T_Sinc, T_Sinc_DGLG,330, incorrect,2,1
248,2, T_Sinc, T_Sinc_DGLG,353.5, hit,1,0
249,2, T_Scon, T_Scon_DRRR,405, hit,2,0
250,2, T_Sinc, T_Sinc_URRR,672.4, hit,2,0
251,2, T_Sinc, T_Sinc_URRR,451.9, hit,2,0
252,2, T_Scon, T_Scon_DRRR,851, hit,2,2
253,2, T_Sinc, T_Sinc_DGLG,314.5, hit,1,0
254,2, T_Sinc, T_Sinc_DGLG,385.9, incorrect,2,1
255,2, T_Sinc, T_Sinc_DGLG,285.3, hit,1,0
256,2, T_Sinc, T_Sinc_URRR,288.8, hit,2,0
257,2, T_Sinc, T_Sinc_DGLG,316.2, hit,1,0
258,2, T_Sinc, T_Sinc_DGLG,551.7, hit,1,0
259,2, T_Sinc, T_Sinc_URRR,779.2, hit,2,0
260,2, T_Scon, T_Scon_UGLG,438.5, hit,1,0
261,2, T_Sinc, T_Sinc_URRR,450, hit,2,0
262,2, T_Scon, T_Scon_UGLG,445.5, hit,1,0
263,2, T_Sinc, T_Sinc_URRR,364.9, incorrect,1,1
264,2, T_Scon, T_Scon_UGLG,436.2, hit,1,0
265,2, T_Scon, T_Scon_UGLG,643.7, hit,1,0
266,2, T_Sinc, T_Sinc_DGLG,455.2, hit,1,0
267,2, T_Scon, T_Scon_DRRR,342.7, hit,2,0
268,2, T_Scon, T_Scon_DRRR,374.1, hit,2,0
269,2, T_Sinc, T_Sinc_URRR,341.5, hit,2,0
270,2, T_Sinc, T_Sinc_DGLG,364.9, hit,1,0
271,2, T_Sinc, T_Sinc_DGLG,328.4, incorrect,2,1
272,2, T_Scon, T_Scon_DRRR,419.8, hit,2,0
273,2, T_Sinc, T_Sinc_URRR,567.2, hit,2,0
274,2, T_Sinc, T_Sinc_URRR,326.7, hit,2,0
275,2, T_Scon, T_Scon_UGLG,294.2, hit,1,0
276,2, T_Sinc, T_Sinc_URRR,389.5, hit,2,0
277,2, T_Scon, T_Scon_UGLG,573, hit,1,0
278,2, T_Sinc, T_Sinc_URRR,344.5, hit,2,0
279,2, T_Sinc, T_Sinc_URRR,519.8, hit,2,0
280,2, T_Sinc, T_Sinc_DGLG,339.3, hit,1,0
281,2, T_Scon, T_Scon_UGLG,894.8, hit,1,2
282,2, T_Sinc, T_Sinc_DGLG,402.2, hit,1,0
283,2, T_Sinc, T_Sinc_URRR,381.6, hit,2,0
284,2, T_Sinc, T_Sinc_URRR,405, hit,2,0
285,2, T_Sinc, T_Sinc_URRR,328.5, incorrect,1,1
286,2, T_Sinc, T_Sinc_DGLG,372, hit,1,0
287,2, T_Sinc, T_Sinc_DGLG,527.3, hit,1,0
288,3, T_Sinc, T_Sinc_DGLG,441, hit,1,0
289,3, T_Sinc, T_Sinc_URRR,308.5, hit,2,0
290,3, T_Sinc, T_Sinc_DGLG,295.9, incorrect,2,1
291,3, T_Sinc, T_Sinc_DGLG,259.4, hit,1,0
292,3, T_Scon, T_Scon_UGLG,338.7, hit,1,0
293,3, T_Sinc, T_Sinc_DGLG,310.2, hit,1,0
294,3, T_Sinc, T_Sinc_DGLG,421.7, hit,1,0
295,3, T_Sinc, T_Sinc_DGLG,253.1, hit,1,0
296,3, T_Scon, T_Scon_DRRR,396.5, hit,2,0
297,3, T_Sinc, T_Sinc_URRR,399.9, incorrect,1,1
298,3, T_Scon, T_Scon_DRRR,439.4, hit,2,0
299,3, T_Sinc, T_Sinc_DGLG,426.9, hit,1,0
300,3, T_Scon, T_Scon_UGLG,730.2, hit,1,0
301,3, T_Sinc, T_Sinc_DGLG,317.7, incorrect,2,1
302,3, T_Sinc, T_Sinc_DGLG,353.2, hit,1,0
303,3, T_Sinc, T_Sinc_URRR,444.6, hit,2,0
304,3, T_Scon, T_Scon_UGLG,380, hit,1,0
305,3, T_Sinc, T_Sinc_URRR,431.5, hit,2,0
306,3, T_Scon, T_Scon_DRRR,326.9, incorrect,1,1
307,3, T_Sinc, T_Sinc_URRR,362.4, hit,2,0
308,3, T_Scon, T_Scon_DRRR,397.7, hit,2,0
309,3, T_Scon, T_Scon_UGLG,797.2, hit,1,0
310,3, T_Sinc, T_Sinc_URRR,336.7, incorrect,1,1
311,3, T_Sinc, T_Sinc_URRR,380.1, hit,2,0
312,3, T_Sinc, T_Sinc_URRR,379.5, hit,2,0
313,3, T_Sinc, T_Sinc_DGLG,631, hit,1,0
314,3, T_Sinc, T_Sinc_URRR,274.4, hit,2,0
315,3, T_Scon, T_Scon_UGLG,349.9, hit,1,0
316,3, T_Sinc, T_Sinc_URRR,497.3, hit,2,0
317,3, T_Sinc, T_Sinc_URRR,412.8, hit,2,0
318,3, T_Sinc, T_Sinc_URRR,696.2, hit,2,0
319,3, T_Sinc, T_Sinc_URRR,383.7, hit,2,0
320,3, T_Sinc, T_Sinc_DGLG,343, hit,1,0
321,3, T_Sinc, T_Sinc_URRR,334.5, hit,2,0
322,3, T_Scon, T_Scon_DRRR,425.9, hit,2,0
323,3, T_Sinc, T_Sinc_URRR,365.4, hit,2,0
324,3, T_Scon, T_Scon_DRRR,420.5, incorrect,1,1
325,3, T_Scon, T_Scon_UGLG,304, hit,1,0
326,3, T_Scon, T_Scon_UGLG,363.4, hit,1,0
327,3, T_Scon, T_Scon_UGLG,338.8, hit,1,0
328,3, T_Sinc, T_Sinc_DGLG,250.3, incorrect,2,1
329,3, T_Scon, T_Scon_UGLG,337.7, hit,1,0
330,3, T_Sinc, T_Sinc_DGLG,289.2, hit,1,0
331,3, T_Scon, T_Scon_DRRR,364.6, hit,2,0
332,3, T_Sinc, T_Sinc_DGLG,436, incorrect,2,1
333,3, T_Scon, T_Scon_UGLG,423.5, hit,1,0
334,3, T_Scon, T_Scon_DRRR,323, hit,2,0
335,3, T_Sinc, T_Sinc_DGLG,282.3, hit,1,0
336,3, T_Sinc, T_Sinc_URRR,373.8, hit,2,0
337,3, T_Sinc, T_Sinc_URRR,545.2, hit,2,0
338,3, T_Sinc, T_Sinc_DGLG,348.7, hit,1,0
339,3, T_Sinc, T_Sinc_DGLG,388.1, hit,1,0
340,3, T_Sinc, T_Sinc_DGLG,375.5, hit,1,0
341,3, T_Scon, T_Scon_UGLG,391, incorrect,2,1
342,3, T_Scon, T_Scon_DRRR,302.5, incorrect,1,1
343,3, T_Sinc, T_Sinc_URRR,365.8, hit,2,0
344,3, T_Sinc, T_Sinc_URRR,549.3, hit,2,0
345,3, T_Sinc, T_Sinc_DGLG,468.8, hit,1,0
346,3, T_Sinc, T_Sinc_DGLG,528.2, hit,1,0
347,3, T_Sinc, T_Sinc_URRR,515.6, hit,2,0
348,3, T_Sinc, T_Sinc_DGLG,335.1, hit,1,0
349,3, T_Sinc, T_Sinc_DGLG,778.5, hit,1,0
350,3, T_Sinc, T_Sinc_DGLG,446, hit,1,0
351,3, T_Sinc, T_Sinc_URRR,417.4, hit,2,0
352,3, T_Sinc, T_Sinc_DGLG,316.8, hit,1,0
353,3, T_Sinc, T_Sinc_URRR,328.3, hit,2,0
354,3, T_Sinc, T_Sinc_DGLG,451.7, hit,1,0
355,3, T_Sinc, T_Sinc_DGLG,439.2, hit,1,0
356,3, T_Sinc, T_Sinc_URRR,306.6, hit,2,0
357,3, T_Sinc, T_Sinc_URRR,534, hit,2,0
358,3, T_Sinc, T_Sinc_URRR,537.5, hit,2,0
359,3, T_Scon, T_Scon_UGLG,776.9, hit,1,0
360,3, T_Sinc, T_Sinc_DGLG,432.2, incorrect,2,1
361,3, T_Sinc, T_Sinc_DGLG,299.5, hit,1,0
362,3, T_Sinc, T_Sinc_URRR,371, hit,2,0
363,3, T_Scon, T_Scon_DRRR,430.4, hit,2,0
364,3, T_Scon, T_Scon_DRRR,473.8, hit,2,0
365,3, T_Sinc, T_Sinc_URRR,325.3, incorrect,1,1
366,3, T_Sinc, T_Sinc_URRR,384.7, hit,2,0
367,3, T_Sinc, T_Sinc_DGLG,424.2, hit,1,0
368,3, T_Sinc, T_Sinc_URRR,387.6, hit,2,0
369,3, T_Sinc, T_Sinc_DGLG,439, hit,1,0
370,3, T_Sinc, T_Sinc_DGLG,314.5, hit,1,0
371,3, T_Sinc, T_Sinc_URRR,638, hit,2,0
372,3, T_Sinc, T_Sinc_DGLG,297.3, hit,1,0
373,3, T_Sinc, T_Sinc_DGLG,324.8, hit,1,0
374,3, T_Sinc, T_Sinc_URRR,408.3, hit,2,0
375,3, T_Sinc, T_Sinc_DGLG,395.7, hit,1,0
376,3, T_Sinc, T_Sinc_URRR,411.2, hit,2,0
377,3, T_Scon, T_Scon_DRRR,310.5, incorrect,1,1
378,3, T_Sinc, T_Sinc_URRR,366, hit,2,0
379,3, T_Sinc, T_Sinc_DGLG,909.5, hit,1,2
380,3, T_Scon, T_Scon_DRRR,728.9, hit,2,0
381,3, T_Sinc, T_Sinc_DGLG,356.3, hit,1,0
382,3, T_Sinc, T_Sinc_DGLG,319.8, hit,1,0
383,3, T_Scon, T_Scon_DRRR,599.2, hit,2,0
384,3, T_Sinc, T_Sinc_URRR,370.6, hit,2,0
385,3, T_Sinc, T_Sinc_DGLG,426.1, hit,1,0
386,3, T_Scon, T_Scon_DRRR,385.5, hit,2,0
387,3, T_Sinc, T_Sinc_URRR,469, hit,2,0
388,3, T_Sinc, T_Sinc_DGLG,480.4, hit,1,0
389,3, T_Sinc, T_Sinc_URRR,443.8, hit,2,0
390,3, T_Sinc, T_Sinc_URRR,675.3, hit,2,0
391,3, T_Scon, T_Scon_UGLG,358.7, hit,1,0
392,3, T_Sinc, T_Sinc_DGLG,386.1, hit,1,0
393,3, T_Sinc, T_Sinc_DGLG,997.6, hit,1,2
394,3, T_Sinc, T_Sinc_DGLG,321, hit,1,0
395,3, T_Sinc, T_Sinc_DGLG,280.5, hit,1,0
396,3, T_Sinc, T_Sinc_URRR,463.6, hit,2,0
397,3, T_Scon, T_Scon_UGLG,347.1, hit,1,0
398,3, T_Sinc, T_Sinc_DGLG,318.5, hit,1,0
399,3, T_Scon, T_Scon_UGLG,345.9, hit,1,0
400,3, T_Sinc, T_Sinc_DGLG,373.4, incorrect,2,1
401,3, T_Sinc, T_Sinc_URRR,400.8, hit,2,0
402,3, T_Scon, T_Scon_DRRR,372.3, hit,2,0
403,3, T_Sinc, T_Sinc_URRR,743.7, hit,2,0
404,3, T_Sinc, T_Sinc_URRR,375.1, hit,2,0
405,3, T_Sinc, T_Sinc_DGLG,322.6, hit,1,0
406,3, T_Sinc, T_Sinc_DGLG,294.1, hit,1,0
407,3, T_Sinc, T_Sinc_URRR,389.4, hit,2,0
408,3, T_Scon, T_Scon_UGLG,360.9, hit,1,0
409,3, T_Sinc, T_Sinc_DGLG,308.4, incorrect,2,1
410,3, T_Scon, T_Scon_UGLG,299.8, hit,1,0
411,3, T_Sinc, T_Sinc_URRR,407.2, hit,2,0
412,3, T_Sinc, T_Sinc_DGLG,362.6, hit,1,0
413,3, T_Sinc, T_Sinc_DGLG,350.1, hit,1,0
414,3, T_Sinc, T_Sinc_URRR,453.5, hit,2,0
415,3, T_Sinc, T_Sinc_URRR,344.9, hit,2,0
416,3, T_Sinc, T_Sinc_URRR,288.4, hit,2,0
417,3, T_Sinc, T_Sinc_URRR,287.9, hit,2,0
418,3, T_Sinc, T_Sinc_URRR,283.3, hit,2,0
419,3, T_Sinc, T_Sinc_URRR,386.7, hit,2,0
420,3, T_Sinc, T_Sinc_DGLG,350.2, hit,1,0
421,3, T_Sinc, T_Sinc_URRR,85.6, incorrect,1,1
422,3, T_Sinc, T_Sinc_URRR,381.1, hit,2,0
423,3, T_Sinc, T_Sinc_DGLG,464.4, hit,1,0
424,3, T_Scon, T_Scon_UGLG,419.9, hit,1,0
425,3, T_Scon, T_Scon_DRRR,399.4, hit,2,0
426,3, T_Sinc, T_Sinc_DGLG,418.8, hit,1,0
427,3, T_Sinc, T_Sinc_DGLG,354.2, hit,1,0
428,3, T_Scon, T_Scon_DRRR,477.7, hit,2,0
429,3, T_Sinc, T_Sinc_URRR,413.1, hit,2,0
430,3, T_Sinc, T_Sinc_URRR,448.6, hit,2,0
431,3, T_Sinc, T_Sinc_URRR,552, hit,2,0
432,4, T_Scon, T_Scon_UGLG,375.3, hit,1,0
433,4, T_Scon, T_Scon_UGLG,298.7, hit,1,0
434,4, T_Scon, T_Scon_DRRR,310.2, hit,2,0
435,4, T_Scon, T_Scon_DRRR,337.5, hit,2,0
436,4, T_Scon, T_Scon_UGLG,309, hit,1,0
437,4, T_Scon, T_Scon_UGLG,328.4, hit,1,0
438,4, T_Scon, T_Scon_UGLG,303.9, hit,1,0
439,4, T_Sinc, T_Sinc_DGLG,623.4, hit,1,0
440,4, T_Scon, T_Scon_UGLG,394.7, hit,1,0
441,4, T_Sinc, T_Sinc_DGLG,350.2, hit,1,0
442,4, T_Scon, T_Scon_DRRR,357.7, hit,2,0
443,4, T_Sinc, T_Sinc_URRR,809.1, hit,2,2
444,4, T_Scon, T_Scon_DRRR,352.5, hit,2,0
445,4, T_Scon, T_Scon_DRRR,372, hit,2,0
446,4, T_Scon, T_Scon_DRRR,583.4, hit,2,0
447,4, T_Scon, T_Scon_DRRR,322.8, hit,2,0
448,4, T_Scon, T_Scon_UGLG,334.3, hit,1,0
449,4, T_Scon, T_Scon_UGLG,549.7, hit,1,0
450,4, T_Scon, T_Scon_DRRR,381.2, hit,2,0
451,4, T_Scon, T_Scon_DRRR,404.6, hit,2,0
452,4, T_Sinc, T_Sinc_DGLG,456, hit,1,0
453,4, T_Scon, T_Scon_UGLG,351.5, hit,1,0
454,4, T_Sinc, T_Sinc_URRR,458.9, hit,2,0
455,4, T_Sinc, T_Sinc_URRR,606.4, hit,2,0
456,4, T_Sinc, T_Sinc_DGLG,337.8, hit,1,0
457,4, T_Scon, T_Scon_DRRR,377.2, incorrect,1,1
458,4, T_Sinc, T_Sinc_URRR,308.7, hit,2,0
459,4, T_Scon, T_Scon_UGLG,880.2, hit,1,2
460,4, T_Scon, T_Scon_DRRR,807.5, hit,2,0
461,4, T_Scon, T_Scon_DRRR,363, hit,2,0
462,4, T_Sinc, T_Sinc_URRR,346.5, hit,2,0
463,4, T_Scon, T_Scon_DRRR,573.8, hit,2,0
464,4, T_Scon, T_Scon_UGLG,353.3, hit,1,0
465,4, T_Scon, T_Scon_UGLG,364.8, hit,1,0
466,4, T_Scon, T_Scon_UGLG,368.2, hit,1,0
467,4, T_Sinc, T_Sinc_DGLG,363.6, incorrect,2,1
468,4, T_Sinc, T_Sinc_URRR,498.8, incorrect,1,1
469,4, T_Sinc, T_Sinc_DGLG,242.2, hit,1,0
470,4, T_Scon, T_Scon_UGLG,493.7, hit,1,0
471,4, T_Sinc, T_Sinc_DGLG,273.2, hit,1,0
472,4, T_Scon, T_Scon_UGLG,292.5, hit,1,0
473,4, T_Scon, T_Scon_DRRR,388, hit,2,0
474,4, T_Sinc, T_Sinc_URRR,407.5, hit,2,0
475,4, T_Scon, T_Scon_DRRR,666.9, hit,2,0
476,4, T_Scon, T_Scon_UGLG,334.3, hit,1,0
477,4, T_Scon, T_Scon_UGLG,345.8, hit,1,0
478,4, T_Sinc, T_Sinc_URRR,309.2, incorrect,1,1
479,4, T_Sinc, T_Sinc_DGLG,332.6, incorrect,2,1
480,4, T_Scon, T_Scon_DRRR,488, hit,2,0
481,4, T_Scon, T_Scon_UGLG,267.5, hit,1,0
482,4, T_Sinc, T_Sinc_DGLG,271, incorrect,2,1
483,4, T_Scon, T_Scon_UGLG,314.4, hit,1,0
484,4, T_Scon, T_Scon_DRRR,369.8, hit,2,0
485,4, T_Scon, T_Scon_UGLG,393.3, hit,1,0
486,4, T_Scon, T_Scon_DRRR,416.7, hit,2,0
487,4, T_Scon, T_Scon_UGLG,328.2, hit,1,0
488,4, T_Scon, T_Scon_UGLG,643.6, hit,1,0
489,4, T_Scon, T_Scon_DRRR,359, hit,2,0
490,4, T_Sinc, T_Sinc_DGLG,518.5, hit,1,0
491,4, T_Scon, T_Scon_DRRR,353.9, hit,2,0
492,4, T_Scon, T_Scon_UGLG,405.3, hit,1,0
493,4, T_Scon, T_Scon_UGLG,764.8, hit,1,0
494,4, T_Scon, T_Scon_UGLG,376.2, hit,1,0
495,4, T_Scon, T_Scon_DRRR,875.7, hit,2,2
496,4, T_Sinc, T_Sinc_DGLG,403.1, hit,1,0
497,4, T_Scon, T_Scon_UGLG,294.5, hit,1,0
498,4, T_Scon, T_Scon_UGLG,262, hit,1,0
499,4, T_Scon, T_Scon_DRRR,497.5, hit,2,0
500,4, T_Scon, T_Scon_UGLG,436.8, hit,1,0
501,4, T_Sinc, T_Sinc_URRR,504.3, hit,2,0
502,4, T_Scon, T_Scon_UGLG,403.8, hit,1,0
503,4, T_Sinc, T_Sinc_URRR,591.2, hit,2,0
504,4, T_Sinc, T_Sinc_URRR,914.4, hit,2,2
505,4, T_Scon, T_Scon_DRRR,637.8, hit,2,0
506,4, T_Scon, T_Scon_UGLG,353.3, incorrect,2,1
507,4, T_Sinc, T_Sinc_DGLG,348.6, hit,1,0
508,4, T_Scon, T_Scon_DRRR,344.1, hit,2,0
509,4, T_Scon, T_Scon_UGLG,295.5, hit,1,0
510,4, T_Sinc, T_Sinc_URRR,635, hit,2,0
511,4, T_Scon, T_Scon_DRRR,790.4, hit,2,0
512,4, T_Sinc, T_Sinc_DGLG,441.9, hit,1,0
513,4, T_Scon, T_Scon_UGLG,397.3, hit,1,0
514,4, T_Scon, T_Scon_UGLG,432.7, hit,1,0
515,4, T_Sinc, T_Sinc_DGLG,416.1, incorrect,2,1
516,4, T_Scon, T_Scon_DRRR,403.6, hit,2,0
517,4, T_Scon, T_Scon_DRRR,391.1, hit,2,0
518,4, T_Scon, T_Scon_UGLG,318.4, hit,1,0
519,4, T_Scon, T_Scon_DRRR,393.9, hit,2,0
520,4, T_Scon, T_Scon_UGLG,341.4, hit,1,0
521,4, T_Scon, T_Scon_DRRR,500.8, hit,2,0
522,4, T_Scon, T_Scon_DRRR,364.2, hit,2,0
523,4, T_Scon, T_Scon_UGLG,639.7, hit,1,0
524,4, T_Scon, T_Scon_DRRR,399.1, incorrect,1,1
525,4, T_Scon, T_Scon_UGLG,442.5, hit,1,0
526,4, T_Scon, T_Scon_UGLG,346, hit,1,0
527,4, T_Scon, T_Scon_DRRR,485.4, hit,2,0
528,4, T_Scon, T_Scon_DRRR,332.9, hit,2,0
529,4, T_Scon, T_Scon_DRRR,336.2, hit,2,0
530,4, T_Scon, T_Scon_DRRR,295.7, hit,2,0
531,4, T_Scon, T_Scon_UGLG,355.2, hit,1,0
532,4, T_Sinc, T_Sinc_DGLG,246.6, incorrect,2,1
533,4, T_Scon, T_Scon_UGLG,286.1, hit,1,0
534,4, T_Scon, T_Scon_DRRR,349.5, hit,2,0
535,4, T_Scon, T_Scon_UGLG,312.9, hit,1,0
536,4, T_Scon, T_Scon_DRRR,388.4, hit,2,0
537,4, T_Scon, T_Scon_DRRR,395.9, hit,2,0
538,4, T_Scon, T_Scon_UGLG,311.2, hit,1,0
539,4, T_Scon, T_Scon_UGLG,366.7, hit,1,0
540,4, T_Scon, T_Scon_DRRR,0.2, miss,2860799,1
541,4, T_Scon, T_Scon_UGLG,0.1, miss,2879965,1
542,4, T_Scon, T_Scon_DRRR,0.1, miss,2900130,1
543,4, T_Scon, T_Scon_UGLG,428.2, hit,1,0
544,4, T_Scon, T_Scon_DRRR,383.5, hit,2,0
545,4, T_Scon, T_Scon_UGLG,319, hit,1,0
546,4, T_Scon, T_Scon_DRRR,586.5, hit,2,0
547,4, T_Scon, T_Scon_DRRR,385.9, hit,2,0
548,4, T_Scon, T_Scon_DRRR,341.3, hit,2,0
549,4, T_Scon, T_Scon_UGLG,396.8, hit,1,0
550,4, T_Scon, T_Scon_UGLG,316.2, hit,1,0
551,4, T_Scon, T_Scon_DRRR,499.7, hit,2,0
552,4, T_Scon, T_Scon_DRRR,423.1, hit,2,0
553,4, T_Sinc, T_Sinc_DGLG,382.5, hit,1,0
554,4, T_Sinc, T_Sinc_URRR,358, hit,2,0
555,4, T_Sinc, T_Sinc_DGLG,417.5, hit,1,0
556,4, T_Sinc, T_Sinc_URRR,296.8, hit,2,0
557,4, T_Scon, T_Scon_UGLG,376.3, hit,1,0
558,4, T_Scon, T_Scon_DRRR,539.7, hit,2,0
559,4, T_Sinc, T_Sinc_URRR,423.2, hit,2,0
560,4, T_Sinc, T_Sinc_URRR,330.6, hit,2,0
561,4, T_Scon, T_Scon_DRRR,390, hit,2,0
562,4, T_Scon, T_Scon_DRRR,409.5, hit,2,0
563,4, T_Sinc, T_Sinc_URRR,372.9, incorrect,1,1
564,4, T_Sinc, T_Sinc_URRR,368.3, incorrect,1,1
565,4, T_Scon, T_Scon_DRRR,547.8, hit,2,0
566,4, T_Scon, T_Scon_DRRR,303.3, hit,2,0
567,4, T_Scon, T_Scon_UGLG,322.7, hit,1,0
568,4, T_Scon, T_Scon_DRRR,342.1, hit,2,0
569,4, T_Scon, T_Scon_DRRR,489.6, hit,2,0
570,4, T_Scon, T_Scon_UGLG,333, incorrect,2,1
571,4, T_Scon, T_Scon_UGLG,336.5, hit,1,0
572,4, T_Scon, T_Scon_DRRR,347.8, hit,2,0
573,4, T_Scon, T_Scon_UGLG,351.3, hit,1,0
574,4, T_Sinc, T_Sinc_DGLG,590.8, hit,1,0
575,4, T_Scon, T_Scon_UGLG,426.2, hit,1,0
576,5, T_Scon, T_Scon_UGLG,369.6, hit,1,0
577,5, T_Scon, T_Scon_UGLG,301.1, hit,1,0
578,5, T_Sinc, T_Sinc_URRR,376.5, hit,2,0
579,5, T_Sinc, T_Sinc_URRR,376, hit,2,0
580,5, T_Sinc, T_Sinc_URRR,367.4, hit,2,0
581,5, T_Sinc, T_Sinc_DGLG,318.9, hit,1,0
582,5, T_Sinc, T_Sinc_DGLG,322.3, hit,1,0
583,5, T_Scon, T_Scon_UGLG,409.8, hit,1,0
584,5, T_Scon, T_Scon_DRRR,281.2, hit,2,0
585,5, T_Sinc, T_Sinc_URRR,308.6, hit,2,0
586,5, T_Sinc, T_Sinc_DGLG,332.1, hit,1,0
587,5, T_Scon, T_Scon_UGLG,395.4, incorrect,2,1
588,5, T_Scon, T_Scon_UGLG,502.9, hit,1,0
589,5, T_Scon, T_Scon_DRRR,594.4, hit,2,0
590,5, T_Scon, T_Scon_DRRR,341.8, hit,2,0
591,5, T_Sinc, T_Sinc_URRR,593.3, hit,2,0
592,5, T_Scon, T_Scon_DRRR,432.7, hit,2,0
593,5, T_Scon, T_Scon_UGLG,348.1, hit,1,0
594,5, T_Scon, T_Scon_UGLG,399.6, hit,1,0
595,5, T_Scon, T_Scon_DRRR,610.9, hit,2,0
596,5, T_Scon, T_Scon_DRRR,342.4, hit,2,0
597,5, T_Scon, T_Scon_DRRR,345.9, hit,2,0
598,5, T_Scon, T_Scon_UGLG,429.3, hit,1,0
599,5, T_Scon, T_Scon_UGLG,392.7, hit,1,0
600,5, T_Scon, T_Scon_UGLG,284.2, hit,1,0
601,5, T_Sinc, T_Sinc_URRR,419.6, hit,2,0
602,5, T_Scon, T_Scon_UGLG,287.1, incorrect,2,1
603,5, T_Scon, T_Scon_DRRR,362.6, hit,2,0
604,5, T_Scon, T_Scon_UGLG,249.9, hit,1,0
605,5, T_Scon, T_Scon_DRRR,385.4, hit,2,0
606,5, T_Scon, T_Scon_DRRR,412.8, hit,2,0
607,5, T_Sinc, T_Sinc_URRR,532.3, hit,2,0
608,5, T_Scon, T_Scon_DRRR,351.7, hit,2,0
609,5, T_Scon, T_Scon_DRRR,363.1, hit,2,0
610,5, T_Scon, T_Scon_DRRR,302.6, hit,2,0
611,5, T_Scon, T_Scon_UGLG,466, hit,1,0
612,5, T_Scon, T_Scon_UGLG,1417.2, hit,1,2
613,5, T_Scon, T_Scon_DRRR,356.6, hit,2,0
614,5, T_Sinc, T_Sinc_DGLG,324.1, hit,1,0
615,5, T_Scon, T_Scon_UGLG,591.5, hit,1,0
616,5, T_Scon, T_Scon_UGLG,314.9, hit,1,0
617,5, T_Scon, T_Scon_DRRR,390.4, hit,2,0
618,5, T_Scon, T_Scon_UGLG,321.8, hit,1,0
619,5, T_Scon, T_Scon_DRRR,321.2, hit,2,0
620,5, T_Sinc, T_Sinc_URRR,396.7, hit,2,0
621,5, T_Scon, T_Scon_DRRR,368.2, hit,2,0
622,5, T_Scon, T_Scon_DRRR,391.5, hit,2,0
623,5, T_Scon, T_Scon_UGLG,163, incorrect,2,1
624,5, T_Scon, T_Scon_DRRR,366.4, hit,2,0
625,5, T_Sinc, T_Sinc_URRR,325.9, incorrect,1,1
626,5, T_Sinc, T_Sinc_DGLG,409.3, hit,1,0
627,5, T_Scon, T_Scon_UGLG,372.8, hit,1,0
628,5, T_Scon, T_Scon_UGLG,372.2, incorrect,2,1
629,5, T_Scon, T_Scon_UGLG,275.7, hit,1,0
630,5, T_Scon, T_Scon_DRRR,343.1, hit,2,0
631,5, T_Sinc, T_Sinc_DGLG,486.5, hit,1,0
632,5, T_Scon, T_Scon_UGLG,290, hit,1,0
633,5, T_Sinc, T_Sinc_DGLG,441.4, hit,1,0
634,5, T_Scon, T_Scon_UGLG,292.9, hit,1,0
635,5, T_Scon, T_Scon_UGLG,640.2, hit,1,0
636,5, T_Scon, T_Scon_UGLG,327.7, hit,1,0
637,5, T_Scon, T_Scon_DRRR,343.2, hit,2,0
638,5, T_Scon, T_Scon_DRRR,390.6, hit,2,0
639,5, T_Scon, T_Scon_UGLG,350, hit,1,0
640,5, T_Scon, T_Scon_DRRR,401.5, hit,2,0
641,5, T_Sinc, T_Sinc_DGLG,348.9, hit,1,0
642,5, T_Scon, T_Scon_DRRR,704.3, hit,2,0
643,5, T_Scon, T_Scon_DRRR,347.8, hit,2,0
644,5, T_Scon, T_Scon_DRRR,439.2, hit,2,0
645,5, T_Scon, T_Scon_UGLG,374.7, hit,1,0
646,5, T_Scon, T_Scon_UGLG,810.2, hit,1,0
647,5, T_Scon, T_Scon_UGLG,333.5, hit,1,0
648,5, T_Sinc, T_Sinc_URRR,460.8, incorrect,1,1
649,5, T_Sinc, T_Sinc_DGLG,276.2, hit,1,0
650,5, T_Scon, T_Scon_UGLG,375.5, incorrect,2,1
651,5, T_Scon, T_Scon_DRRR,419, hit,2,0
652,5, T_Scon, T_Scon_UGLG,342.5, hit,1,0
653,5, T_Sinc, T_Sinc_DGLG,489.9, hit,1,0
654,5, T_Sinc, T_Sinc_DGLG,393.3, hit,1,0
655,5, T_Sinc, T_Sinc_URRR,460.8, hit,2,0
656,5, T_Sinc, T_Sinc_URRR,408.2, hit,2,0
657,5, T_Sinc, T_Sinc_URRR,607.7, hit,2,0
658,5, T_Scon, T_Scon_UGLG,387.2, incorrect,2,1
659,5, T_Scon, T_Scon_UGLG,446.5, hit,1,0
660,5, T_Scon, T_Scon_DRRR,362, hit,2,0
661,5, T_Scon, T_Scon_DRRR,393.5, hit,2,0
662,5, T_Scon, T_Scon_UGLG,368.9, hit,1,0
663,5, T_Scon, T_Scon_UGLG,428.3, hit,1,0
664,5, T_Sinc, T_Sinc_URRR,663.7, hit,2,0
665,5, T_Scon, T_Scon_UGLG,335.2, hit,1,0
666,5, T_Sinc, T_Sinc_DGLG,394.6, hit,1,0
667,5, T_Scon, T_Scon_UGLG,302, hit,1,0
668,5, T_Sinc, T_Sinc_DGLG,361.5, hit,1,0
669,5, T_Scon, T_Scon_DRRR,829, hit,2,0
670,5, T_Sinc, T_Sinc_DGLG,304.4, hit,1,0
671,5, T_Scon, T_Scon_UGLG,359.8, incorrect,2,1
672,5, T_Scon, T_Scon_UGLG,295.3, hit,1,0
673,5, T_Scon, T_Scon_UGLG,370.7, hit,1,0
674,5, T_Sinc, T_Sinc_URRR,390.1, hit,2,0
675,5, T_Scon, T_Scon_DRRR,553.6, hit,2,0
676,5, T_Sinc, T_Sinc_URRR,377, hit,2,0
677,5, T_Scon, T_Scon_UGLG,388.5, hit,1,0
678,5, T_Sinc, T_Sinc_URRR,379.9, hit,2,0
679,5, T_Scon, T_Scon_DRRR,631.3, hit,2,0
680,5, T_Scon, T_Scon_UGLG,378.8, hit,1,0
681,5, T_Scon, T_Scon_UGLG,534.2, hit,1,0
682,5, T_Scon, T_Scon_UGLG,313.6, hit,1,0
683,5, T_Scon, T_Scon_UGLG,261.1, hit,1,0
684,5, T_Sinc, T_Sinc_DGLG,348.3, hit,1,0
685,5, T_Scon, T_Scon_DRRR,311.7, hit,2,0
686,5, T_Scon, T_Scon_UGLG,303.1, hit,1,0
687,5, T_Scon, T_Scon_DRRR,482.6, hit,2,0
688,5, T_Scon, T_Scon_DRRR,390, hit,2,0
689,5, T_Scon, T_Scon_DRRR,465.4, hit,2,0
690,5, T_Scon, T_Scon_DRRR,340.9, hit,2,0
691,5, T_Scon, T_Scon_DRRR,456.3, hit,2,0
692,5, T_Scon, T_Scon_UGLG,323.8, hit,1,0
693,5, T_Scon, T_Scon_UGLG,467.2, hit,1,0
694,5, T_Scon, T_Scon_DRRR,406.6, hit,2,0
695,5, T_Sinc, T_Sinc_DGLG,458.1, hit,1,0
696,5, T_Scon, T_Scon_DRRR,381.6, hit,2,0
697,5, T_Scon, T_Scon_DRRR,336.9, hit,2,0
698,5, T_Scon, T_Scon_DRRR,296.4, hit,2,0
699,5, T_Scon, T_Scon_DRRR,347.8, hit,2,0
700,5, T_Scon, T_Scon_DRRR,363.3, hit,2,0
701,5, T_Scon, T_Scon_UGLG,418.7, hit,1,0
702,5, T_Scon, T_Scon_UGLG,386.1, hit,1,0
703,5, T_Scon, T_Scon_DRRR,353.6, hit,2,0
704,5, T_Scon, T_Scon_DRRR,541.1, hit,2,0
705,5, T_Scon, T_Scon_DRRR,312.4, hit,2,0
706,5, T_Scon, T_Scon_UGLG,295.9, hit,1,0
707,5, T_Scon, T_Scon_UGLG,255.4, hit,1,0
708,5, T_Sinc, T_Sinc_DGLG,338.8, hit,1,0
709,5, T_Scon, T_Scon_DRRR,510.3, hit,2,0
710,5, T_Scon, T_Scon_DRRR,289.6, hit,2,0
711,5, T_Scon, T_Scon_DRRR,373.1, hit,2,0
712,5, T_Sinc, T_Sinc_URRR,580.6, hit,2,0
713,5, T_Scon, T_Scon_UGLG,604, hit,1,0
714,5, T_Scon, T_Scon_DRRR,439.4, hit,2,0
715,5, T_Scon, T_Scon_DRRR,474.9, hit,2,0
716,5, T_Scon, T_Scon_DRRR,450.3, hit,2,0
717,5, T_Scon, T_Scon_UGLG,413.8, hit,1,0
718,5, T_Scon, T_Scon_DRRR,649.2, hit,2,0
719,5, T_Sinc, T_Sinc_DGLG,0.1, miss,3579749,1
720,6, T_Scon, T_Scon_DRRR,684.6, hit,2,0
721,6, T_Scon, T_Scon_UGLG,284.1, hit,1,0
722,6, T_Scon, T_Scon_DRRR,291.4, hit,2,0
723,6, T_Scon, T_Scon_DRRR,286.9, hit,2,0
724,6, T_Scon, T_Scon_DRRR,270.3, hit,2,0
725,6, T_Scon, T_Scon_UGLG,305.8, hit,1,0
726,6, T_Scon, T_Scon_DRRR,313.2, hit,2,0
727,6, T_Scon, T_Scon_DRRR,412.6, hit,2,0
728,6, T_Scon, T_Scon_DRRR,376.1, hit,2,0
729,6, T_Scon, T_Scon_DRRR,307.6, hit,2,0
730,6, T_Scon, T_Scon_UGLG,310.9, hit,1,0
731,6, T_Scon, T_Scon_UGLG,314.4, hit,1,0
732,6, T_Sinc, T_Sinc_DGLG,461.9, hit,1,0
733,6, T_Sinc, T_Sinc_URRR,305.3, incorrect,1,1
734,6, T_Scon, T_Scon_UGLG,304.7, hit,1,0
735,6, T_Sinc, T_Sinc_DGLG,516.1, hit,1,0
736,6, T_Scon, T_Scon_UGLG,371.6, hit,1,0
737,6, T_Scon, T_Scon_DRRR,259, hit,2,0
738,6, T_Scon, T_Scon_DRRR,294.4, hit,2,0
739,6, T_Scon, T_Scon_UGLG,325.9, hit,1,0
740,6, T_Scon, T_Scon_UGLG,313.4, hit,1,0
741,6, T_Scon, T_Scon_UGLG,604.7, hit,1,0
742,6, T_Sinc, T_Sinc_URRR,396.2, incorrect,1,1
743,6, T_Scon, T_Scon_DRRR,255.6, hit,2,0
744,6, T_Scon, T_Scon_UGLG,367.1, hit,1,0
745,6, T_Scon, T_Scon_UGLG,262.6, hit,1,0
746,6, T_Sinc, T_Sinc_URRR,329.9, incorrect,1,1
747,6, T_Scon, T_Scon_UGLG,349.4, hit,1,0
748,6, T_Scon, T_Scon_DRRR,660.9, hit,2,0
749,6, T_Scon, T_Scon_DRRR,344.3, hit,2,0
750,6, T_Scon, T_Scon_DRRR,291.7, hit,2,0
751,6, T_Scon, T_Scon_UGLG,411.2, hit,1,0
752,6, T_Scon, T_Scon_UGLG,390.6, hit,1,0
753,6, T_Scon, T_Scon_UGLG,442.1, hit,1,0
754,6, T_Sinc, T_Sinc_URRR,453.4, hit,2,0
755,6, T_Scon, T_Scon_UGLG,364.9, incorrect,2,1
756,6, T_Scon, T_Scon_DRRR,440.2, hit,2,0
757,6, T_Scon, T_Scon_DRRR,291.6, hit,2,0
758,6, T_Scon, T_Scon_UGLG,279, hit,1,0
759,6, T_Scon, T_Scon_DRRR,406.4, hit,2,0
760,6, T_Scon, T_Scon_UGLG,373.9, hit,1,0
761,6, T_Scon, T_Scon_UGLG,497.3, hit,1,0
762,6, T_Scon, T_Scon_DRRR,380.8, hit,2,0
763,6, T_Scon, T_Scon_DRRR,324.2, hit,2,0
764,6, T_Scon, T_Scon_UGLG,315.6, hit,1,0
765,6, T_Scon, T_Scon_UGLG,327.1, hit,1,0
766,6, T_Scon, T_Scon_DRRR,314.5, hit,2,0
767,6, T_Scon, T_Scon_UGLG,270, hit,1,0
768,6, T_Scon, T_Scon_DRRR,633.4, hit,2,0
769,6, T_Scon, T_Scon_DRRR,328.8, incorrect,1,1
770,6, T_Scon, T_Scon_UGLG,372.3, hit,1,0
771,6, T_Scon, T_Scon_UGLG,319.8, hit,1,0
772,6, T_Sinc, T_Sinc_URRR,371.1, hit,2,0
773,6, T_Sinc, T_Sinc_URRR,406.6, hit,2,0
774,6, T_Scon, T_Scon_UGLG,490.1, hit,1,0
775,6, T_Scon, T_Scon_UGLG,317.4, hit,1,0
776,6, T_Scon, T_Scon_DRRR,584.9, hit,2,0
777,6, T_Scon, T_Scon_DRRR,420.3, hit,2,0
778,6, T_Scon, T_Scon_UGLG,323.8, hit,1,0
779,6, T_Scon, T_Scon_UGLG,327.2, hit,1,0
780,6, T_Scon, T_Scon_UGLG,330.7, hit,1,0
781,6, T_Scon, T_Scon_UGLG,882.1, hit,1,2
782,6, T_Scon, T_Scon_DRRR,685.5, hit,2,0
783,6, T_Sinc, T_Sinc_DGLG,520.9, hit,1,0
784,6, T_Scon, T_Scon_UGLG,360.4, incorrect,2,1
785,6, T_Sinc, T_Sinc_DGLG,315.9, hit,1,0
786,6, T_Scon, T_Scon_UGLG,371.2, hit,1,0
787,6, T_Sinc, T_Sinc_URRR,702.7, hit,2,0
788,6, T_Scon, T_Scon_DRRR,338.2, hit,2,0
789,6, T_Scon, T_Scon_UGLG,281.6, hit,1,0
790,6, T_Scon, T_Scon_DRRR,389, hit,2,0
791,6, T_Sinc, T_Sinc_DGLG,244.5, hit,1,0
792,6, T_Scon, T_Scon_DRRR,387.7, hit,2,0
793,6, T_Scon, T_Scon_UGLG,319.1, hit,1,0
794,6, T_Sinc, T_Sinc_DGLG,310.5, hit,1,0
795,6, T_Scon, T_Scon_DRRR,369.9, hit,2,0
796,6, T_Scon, T_Scon_DRRR,533.4, hit,2,0
797,6, T_Scon, T_Scon_DRRR,368.9, hit,2,0
798,6, T_Sinc, T_Sinc_DGLG,316.2, hit,1,0
799,6, T_Sinc, T_Sinc_DGLG,263.7, hit,1,0
800,6, T_Sinc, T_Sinc_URRR,343.2, hit,2,0
801,6, T_Scon, T_Scon_DRRR,274.6, hit,2,0
802,6, T_Scon, T_Scon_DRRR,430.1, hit,2,0
803,6, T_Scon, T_Scon_UGLG,253.5, hit,1,0
804,6, T_Scon, T_Scon_UGLG,392.9, hit,1,0
805,6, T_Sinc, T_Sinc_DGLG,308.4, incorrect,2,1
806,6, T_Sinc, T_Sinc_URRR,455.8, hit,2,0
807,6, T_Scon, T_Scon_DRRR,347.2, hit,2,0
808,6, T_Sinc, T_Sinc_URRR,614.7, hit,2,0
809,6, T_Sinc, T_Sinc_URRR,354.2, hit,2,0
810,6, T_Scon, T_Scon_UGLG,345.5, hit,1,0
811,6, T_Scon, T_Scon_UGLG,357, hit,1,0
812,6, T_Scon, T_Scon_DRRR,676.4, hit,2,0
813,6, T_Scon, T_Scon_UGLG,391.9, hit,1,0
814,6, T_Scon, T_Scon_UGLG,319.3, hit,1,0
815,6, T_Scon, T_Scon_DRRR,710.7, hit,2,0
816,6, T_Scon, T_Scon_UGLG,386.2, incorrect,2,1
817,6, T_Sinc, T_Sinc_URRR,397.6, hit,2,0
818,6, T_Scon, T_Scon_DRRR,469, hit,2,0
819,6, T_Scon, T_Scon_DRRR,396.5, hit,2,0
820,6, T_Sinc, T_Sinc_URRR,476, hit,2,0
821,6, T_Sinc, T_Sinc_URRR,359.3, hit,2,0
822,6, T_Sinc, T_Sinc_URRR,474.8, hit,2,0
823,6, T_Scon, T_Scon_DRRR,398.3, hit,2,0
824,6, T_Scon, T_Scon_DRRR,337.6, hit,2,0
825,6, T_Sinc, T_Sinc_URRR,409.1, incorrect,1,1
826,6, T_Sinc, T_Sinc_DGLG,284.5, hit,1,0
827,6, T_Sinc, T_Sinc_DGLG,696, hit,1,0
828,6, T_Scon, T_Scon_DRRR,499.3, hit,2,0
829,6, T_Scon, T_Scon_UGLG,330.6, hit,1,0
830,6, T_Sinc, T_Sinc_DGLG,310.1, hit,1,0
831,6, T_Scon, T_Scon_UGLG,273.5, hit,1,0
832,6, T_Sinc, T_Sinc_DGLG,500.9, hit,1,0
833,6, T_Sinc, T_Sinc_DGLG,344.3, hit,1,0
834,6, T_Scon, T_Scon_DRRR,363.8, hit,2,0
835,6, T_Scon, T_Scon_DRRR,271.2, hit,2,0
836,6, T_Scon, T_Scon_DRRR,274.6, hit,2,0
837,6, T_Scon, T_Scon_UGLG,366.1, hit,1,0
838,6, T_Sinc, T_Sinc_URRR,425.6, hit,2,0
839,6, T_Scon, T_Scon_DRRR,288.9, hit,2,0
840,6, T_Sinc, T_Sinc_URRR,256.4, incorrect,1,1
841,6, T_Scon, T_Scon_UGLG,391.9, hit,1,0
842,6, T_Scon, T_Scon_DRRR,331.3, hit,2,0
843,6, T_Scon, T_Scon_UGLG,866.7, hit,1,2
844,6, T_Scon, T_Scon_DRRR,422.1, hit,2,0
845,6, T_Sinc, T_Sinc_DGLG,489.6, hit,1,0
846,6, T_Sinc, T_Sinc_DGLG,333.1, hit,1,0
847,6, T_Scon, T_Scon_DRRR,400.4, hit,2,0
848,6, T_Scon, T_Scon_UGLG,367.9, hit,1,0
849,6, T_Scon, T_Scon_UGLG,335.4, hit,1,0
850,6, T_Scon, T_Scon_UGLG,330.8, hit,1,0
851,6, T_Sinc, T_Sinc_DGLG,318.3, incorrect,2,1
852,6, T_Sinc, T_Sinc_DGLG,289.6, hit,1,0
853,6, T_Scon, T_Scon_UGLG,285.1, hit,1,0
854,6, T_Scon, T_Scon_UGLG,300.6, hit,1,0
855,6, T_Scon, T_Scon_DRRR,572, hit,2,0
856,6, T_Scon, T_Scon_DRRR,327.4, hit,2,0
857,6, T_Scon, T_Scon_DRRR,338.9, hit,2,0
858,6, T_Scon, T_Scon_DRRR,366.3, hit,2,0
859,6, T_Scon, T_Scon_UGLG,557.8, hit,1,0
860,6, T_Scon, T_Scon_DRRR,449.2, hit,2,0
861,6, T_Scon, T_Scon_UGLG,564.6, hit,1,0
862,6, T_Scon, T_Scon_DRRR,376.1, hit,2,0
863,6, T_Scon, T_Scon_UGLG,371.5, hit,1,0
864,7, T_Sinc, T_Sinc_URRR,450.3, hit,2,0
865,7, T_Scon, T_Scon_DRRR,345.7, hit,2,0
866,7, T_Scon, T_Scon_DRRR,461.1, hit,2,0
867,7, T_Sinc, T_Sinc_DGLG,344.6, hit,1,0
868,7, T_Sinc, T_Sinc_URRR,288, hit,2,0
869,7, T_Scon, T_Scon_UGLG,355.4, hit,1,0
870,7, T_Sinc, T_Sinc_URRR,358.9, hit,2,0
871,7, T_Sinc, T_Sinc_DGLG,670.3, hit,1,0
872,7, T_Scon, T_Scon_DRRR,433.8, hit,2,0
873,7, T_Sinc, T_Sinc_DGLG,369.1, hit,1,0
874,7, T_Sinc, T_Sinc_DGLG,344.6, hit,1,0
875,7, T_Scon, T_Scon_DRRR,388.1, hit,2,0
876,7, T_Sinc, T_Sinc_DGLG,363.6, hit,1,0
877,7, T_Scon, T_Scon_DRRR,482.9, hit,2,0
878,7, T_Scon, T_Scon_UGLG,454.4, hit,1,0
879,7, T_Sinc, T_Sinc_URRR,681.8, hit,2,0
880,7, T_Scon, T_Scon_UGLG,349.3, incorrect,2,1
881,7, T_Sinc, T_Sinc_DGLG,304.7, hit,1,0
882,7, T_Sinc, T_Sinc_URRR,392.1, hit,2,0
883,7, T_Sinc, T_Sinc_DGLG,375.6, hit,1,0
884,7, T_Sinc, T_Sinc_URRR,375, hit,2,0
885,7, T_Scon, T_Scon_DRRR,434.4, hit,2,0
886,7, T_Sinc, T_Sinc_DGLG,417.9, hit,1,0
887,7, T_Scon, T_Scon_UGLG,465.4, hit,1,0
888,7, T_Sinc, T_Sinc_DGLG,324.8, incorrect,2,1
889,7, T_Sinc, T_Sinc_DGLG,332.2, incorrect,2,1
890,7, T_Sinc, T_Sinc_DGLG,511.6, hit,1,0
891,7, T_Sinc, T_Sinc_URRR,419.1, hit,2,0
892,7, T_Sinc, T_Sinc_DGLG,418.6, hit,1,0
893,7, T_Sinc, T_Sinc_URRR,417.9, hit,2,0
894,7, T_Scon, T_Scon_DRRR,433.4, incorrect,1,1
895,7, T_Sinc, T_Sinc_URRR,420.9, hit,2,0
896,7, T_Sinc, T_Sinc_URRR,376.3, hit,2,0
897,7, T_Sinc, T_Sinc_URRR,327.7, hit,2,0
898,7, T_Scon, T_Scon_DRRR,387.2, hit,2,0
899,7, T_Sinc, T_Sinc_DGLG,486.6, hit,1,0
900,7, T_Sinc, T_Sinc_URRR,429.8, hit,2,0
901,7, T_Sinc, T_Sinc_URRR,681.2, hit,2,0
902,7, T_Scon, T_Scon_UGLG,420.7, hit,1,0
903,7, T_Sinc, T_Sinc_DGLG,356.1, hit,1,0
904,7, T_Sinc, T_Sinc_DGLG,303.5, hit,1,0
905,7, T_Sinc, T_Sinc_DGLG,403, hit,1,0
906,7, T_Sinc, T_Sinc_DGLG,342.4, hit,1,0
907,7, T_Sinc, T_Sinc_URRR,281.9, hit,2,0
908,7, T_Sinc, T_Sinc_DGLG,333.3, hit,1,0
909,7, T_Sinc, T_Sinc_URRR,340.7, hit,2,0
910,7, T_Sinc, T_Sinc_DGLG,392.2, hit,1,0
911,7, T_Sinc, T_Sinc_URRR,627.6, hit,2,0
912,7, T_Sinc, T_Sinc_DGLG,359.1, hit,1,0
913,7, T_Sinc, T_Sinc_URRR,374.5, hit,2,0
914,7, T_Sinc, T_Sinc_DGLG,865.9, hit,1,2
915,7, T_Sinc, T_Sinc_DGLG,437.4, hit,1,0
916,7, T_Sinc, T_Sinc_DGLG,448.8, hit,1,0
917,7, T_Sinc, T_Sinc_URRR,404.2, hit,2,0
918,7, T_Sinc, T_Sinc_URRR,359.7, hit,2,0
919,7, T_Scon, T_Scon_DRRR,355.2, incorrect,1,1
920,7, T_Sinc, T_Sinc_DGLG,390.5, incorrect,2,1
921,7, T_Sinc, T_Sinc_DGLG,342, hit,1,0
922,7, T_Scon, T_Scon_UGLG,581.4, hit,1,0
923,7, T_Sinc, T_Sinc_DGLG,348.8, hit,1,0
924,7, T_Sinc, T_Sinc_URRR,344.3, hit,2,0
925,7, T_Sinc, T_Sinc_DGLG,371.7, hit,1,0
926,7, T_Scon, T_Scon_DRRR,811.2, incorrect,1,1
927,7, T_Sinc, T_Sinc_URRR,462.7, hit,2,0
928,7, T_Sinc, T_Sinc_DGLG,442, hit,1,0
929,7, T_Scon, T_Scon_DRRR,525.5, hit,2,0
930,7, T_Sinc, T_Sinc_URRR,600.9, hit,2,0
931,7, T_Sinc, T_Sinc_URRR,684.4, hit,2,0
932,7, T_Scon, T_Scon_DRRR,815.8, hit,2,0
933,7, T_Scon, T_Scon_UGLG,563.3, hit,1,0
934,7, T_Sinc, T_Sinc_DGLG,446.8, hit,1,0
935,7, T_Sinc, T_Sinc_DGLG,394.1, hit,1,0
936,7, T_Sinc, T_Sinc_URRR,385.3, hit,2,0
937,7, T_Sinc, T_Sinc_URRR,308.7, hit,2,0
938,7, T_Sinc, T_Sinc_URRR,300.2, hit,2,0
939,7, T_Sinc, T_Sinc_DGLG,391.6, hit,1,0
940,7, T_Sinc, T_Sinc_DGLG,271, hit,1,0
941,7, T_Sinc, T_Sinc_DGLG,322.5, hit,1,0
942,7, T_Scon, T_Scon_UGLG,249.9, hit,1,0
943,7, T_Scon, T_Scon_UGLG,349.3, hit,1,0
944,7, T_Sinc, T_Sinc_URRR,352.8, hit,2,0
945,7, T_Sinc, T_Sinc_DGLG,376.3, hit,1,0
946,7, T_Sinc, T_Sinc_URRR,491.6, hit,2,0
947,7, T_Sinc, T_Sinc_URRR,391.1, hit,2,0
948,7, T_Scon, T_Scon_UGLG,434.6, hit,1,0
949,7, T_Sinc, T_Sinc_URRR,357.9, hit,2,0
950,7, T_Sinc, T_Sinc_DGLG,481.4, hit,1,0
951,7, T_Sinc, T_Sinc_DGLG,648.9, hit,1,0
952,7, T_Scon, T_Scon_UGLG,412.3, hit,1,0
953,7, T_Sinc, T_Sinc_DGLG,479.8, hit,1,0
954,7, T_Sinc, T_Sinc_URRR,535.1, hit,2,0
955,7, T_Sinc, T_Sinc_URRR,382.6, incorrect,1,1
956,7, T_Scon, T_Scon_UGLG,522.1, hit,1,0
957,7, T_Sinc, T_Sinc_DGLG,709.5, hit,1,0
958,7, T_Sinc, T_Sinc_URRR,756.9, hit,2,0
959,7, T_Sinc, T_Sinc_URRR,416.4, hit,2,0
960,7, T_Sinc, T_Sinc_URRR,0.1, miss,2411831,1
961,7, T_Sinc, T_Sinc_DGLG,335.4, hit,1,0
962,7, T_Sinc, T_Sinc_DGLG,370.7, hit,1,0
963,7, T_Sinc, T_Sinc_URRR,370.1, hit,2,0
964,7, T_Sinc, T_Sinc_URRR,349.6, hit,2,0
965,7, T_Sinc, T_Sinc_DGLG,325.1, hit,1,0
966,7, T_Sinc, T_Sinc_URRR,348.4, hit,2,0
967,7, T_Sinc, T_Sinc_DGLG,383.9, incorrect,2,1
968,7, T_Scon, T_Scon_UGLG,355.3, incorrect,2,1
969,7, T_Scon, T_Scon_DRRR,446.8, hit,2,0
970,7, T_Sinc, T_Sinc_URRR,386.3, hit,2,0
971,7, T_Sinc, T_Sinc_URRR,541.6, hit,2,0
972,7, T_Sinc, T_Sinc_URRR,340.8, hit,2,0
973,7, T_Sinc, T_Sinc_URRR,316.3, hit,2,0
974,7, T_Sinc, T_Sinc_DGLG,335.7, hit,1,0
975,7, T_Scon, T_Scon_DRRR,319.1, hit,2,0
976,7, T_Sinc, T_Sinc_DGLG,338.6, hit,1,0
977,7, T_Sinc, T_Sinc_DGLG,290.1, hit,1,0
978,7, T_Sinc, T_Sinc_DGLG,317.4, hit,1,0
979,7, T_Scon, T_Scon_UGLG,364.9, incorrect,2,1
980,7, T_Sinc, T_Sinc_DGLG,364.3, hit,1,0
981,7, T_Sinc, T_Sinc_DGLG,247.8, hit,1,0
982,7, T_Sinc, T_Sinc_URRR,347.2, hit,2,0
983,7, T_Scon, T_Scon_DRRR,438.7, hit,2,0
984,7, T_Sinc, T_Sinc_URRR,570.1, hit,2,0
985,7, T_Scon, T_Scon_UGLG,377.5, hit,1,0
986,7, T_Sinc, T_Sinc_URRR,472.9, hit,2,0
987,7, T_Scon, T_Scon_DRRR,356.4, incorrect,1,1
988,7, T_Sinc, T_Sinc_URRR,627.9, hit,2,0
989,7, T_Scon, T_Scon_UGLG,447.3, hit,1,0
990,7, T_Sinc, T_Sinc_URRR,458.7, hit,2,0
991,7, T_Scon, T_Scon_UGLG,686.2, incorrect,2,1
992,7, T_Sinc, T_Sinc_URRR,469.6, hit,2,0
993,7, T_Sinc, T_Sinc_DGLG,1097, hit,1,2
994,7, T_Sinc, T_Sinc_URRR,396.4, hit,2,0
995,7, T_Sinc, T_Sinc_URRR,507.9, hit,2,0
996,7, T_Sinc, T_Sinc_DGLG,399.4, hit,1,0
997,7, T_Sinc, T_Sinc_URRR,418.7, hit,2,0
998,7, T_Sinc, T_Sinc_DGLG,310.2, hit,1,0
999,7, T_Sinc, T_Sinc_DGLG,429.7, hit,1,0
1000,7, T_Sinc, T_Sinc_DGLG,321.2, hit,1,0
1001,7, T_Scon, T_Scon_DRRR,208.5, incorrect,1,1
1002,7, T_Sinc, T_Sinc_URRR,520, hit,2,0
1003,7, T_Sinc, T_Sinc_URRR,363.4, hit,2,0
1004,7, T_Sinc, T_Sinc_URRR,342.9, hit,2,0
1005,7, T_Scon, T_Scon_DRRR,506.3, hit,2,0
1006,7, T_Sinc, T_Sinc_DGLG,445.7, hit,1,0
1007,7, T_Scon, T_Scon_UGLG,905.2, hit,1,2
1008,8, T_Scon, T_Scon_DRRR,498.1, hit,2,0
1009,8, T_Sinc, T_Sinc_DGLG,277.6, incorrect,2,1
1010,8, T_Sinc, T_Sinc_DGLG,249, hit,1,0
1011,8, T_Sinc, T_Sinc_URRR,348.4, hit,2,0
1012,8, T_Sinc, T_Sinc_DGLG,643.9, hit,1,0
1013,8, T_Scon, T_Scon_DRRR,479.3, hit,2,0
1014,8, T_Sinc, T_Sinc_URRR,298.8, incorrect,1,1
1015,8, T_Sinc, T_Sinc_URRR,374.2, hit,2,0
1016,8, T_Sinc, T_Sinc_URRR,365.6, hit,2,0
1017,8, T_Scon, T_Scon_DRRR,529.1, hit,2,0
1018,8, T_Sinc, T_Sinc_URRR,580.5, hit,2,0
1019,8, T_Sinc, T_Sinc_URRR,295.9, hit,2,0
1020,8, T_Scon, T_Scon_DRRR,507.4, hit,2,0
1021,8, T_Scon, T_Scon_DRRR,346.8, hit,2,0
1022,8, T_Sinc, T_Sinc_URRR,374.3, hit,2,0
1023,8, T_Sinc, T_Sinc_URRR,473.6, hit,2,0
1024,8, T_Sinc, T_Sinc_DGLG,389.1, hit,1,0
1025,8, T_Sinc, T_Sinc_DGLG,472.6, hit,1,0
1026,8, T_Sinc, T_Sinc_DGLG,348.1, hit,1,0
1027,8, T_Scon, T_Scon_UGLG,327.4, hit,1,0
1028,8, T_Sinc, T_Sinc_URRR,406.9, hit,2,0
1029,8, T_Sinc, T_Sinc_DGLG,434.3, hit,1,0
1030,8, T_Sinc, T_Sinc_DGLG,333.8, hit,1,0
1031,8, T_Sinc, T_Sinc_URRR,449.1, hit,2,0
1032,8, T_Sinc, T_Sinc_DGLG,320.6, hit,1,0
1033,8, T_Sinc, T_Sinc_DGLG,276.1, hit,1,0
1034,8, T_Sinc, T_Sinc_DGLG,279.6, hit,1,0
1035,8, T_Sinc, T_Sinc_DGLG,298.9, hit,1,0
1036,8, T_Sinc, T_Sinc_URRR,386.4, hit,2,0
1037,8, T_Sinc, T_Sinc_DGLG,665.8, hit,1,0
1038,8, T_Sinc, T_Sinc_DGLG,405.3, hit,1,0
1039,8, T_Sinc, T_Sinc_URRR,492.7, hit,2,0
1040,8, T_Sinc, T_Sinc_DGLG,504.2, hit,1,0
1041,8, T_Sinc, T_Sinc_URRR,1043.6, hit,2,2
1042,8, T_Sinc, T_Sinc_URRR,319.1, incorrect,1,1
1043,8, T_Sinc, T_Sinc_URRR,358.4, hit,2,0
1044,8, T_Sinc, T_Sinc_URRR,821.7, hit,2,2
1045,8, T_Sinc, T_Sinc_URRR,293.1, hit,2,0
1046,8, T_Sinc, T_Sinc_URRR,288.6, hit,2,0
1047,8, T_Scon, T_Scon_UGLG,371.9, incorrect,2,1
1048,8, T_Sinc, T_Sinc_DGLG,363.4, hit,1,0
1049,8, T_Sinc, T_Sinc_DGLG,390.9, hit,1,0
1050,8, T_Scon, T_Scon_DRRR,382.3, hit,2,0
1051,8, T_Sinc, T_Sinc_URRR,393.7, hit,2,0
1052,8, T_Sinc, T_Sinc_DGLG,369.2, hit,1,0
1053,8, T_Sinc, T_Sinc_URRR,660.6, hit,2,0
1054,8, T_Scon, T_Scon_UGLG,416.1, hit,1,0
1055,8, T_Sinc, T_Sinc_DGLG,343.5, hit,1,0
1056,8, T_Sinc, T_Sinc_DGLG,410.9, hit,1,0
1057,8, T_Sinc, T_Sinc_DGLG,450.4, hit,1,0
1058,8, T_Sinc, T_Sinc_DGLG,377.8, hit,1,0
1059,8, T_Sinc, T_Sinc_DGLG,445.2, hit,1,0
1060,8, T_Sinc, T_Sinc_URRR,560.7, incorrect,1,1
1061,8, T_Sinc, T_Sinc_DGLG,372.1, incorrect,2,1
1062,8, T_Scon, T_Scon_DRRR,455.6, hit,2,0
1063,8, T_Scon, T_Scon_UGLG,387, hit,1,0
1064,8, T_Sinc, T_Sinc_URRR,378.4, hit,2,0
1065,8, T_Sinc, T_Sinc_URRR,385.9, hit,2,0
1066,8, T_Sinc, T_Sinc_URRR,317.3, hit,2,0
1067,8, T_Sinc, T_Sinc_DGLG,372.7, hit,1,0
1068,8, T_Sinc, T_Sinc_URRR,144.2, hit,2,0
1069,8, T_Sinc, T_Sinc_URRR,683.6, hit,2,0
1070,8, T_Scon, T_Scon_DRRR,1175, hit,2,2
1071,8, T_Sinc, T_Sinc_URRR,454.5, hit,2,0
1072,8, T_Sinc, T_Sinc_URRR,321.9, hit,2,0
1073,8, T_Scon, T_Scon_DRRR,753.4, hit,2,0
1074,8, T_Scon, T_Scon_UGLG,0.1, miss,1601555,1
1075,8, T_Sinc, T_Sinc_DGLG,364.2, hit,1,0
1076,8, T_Sinc, T_Sinc_URRR,359.7, hit,2,0
1077,8, T_Sinc, T_Sinc_DGLG,347.2, hit,1,0
1078,8, T_Sinc, T_Sinc_DGLG,322.5, hit,1,0
1079,8, T_Scon, T_Scon_UGLG,342, incorrect,2,1
1080,8, T_Sinc, T_Sinc_URRR,337.2, hit,2,0
1081,8, T_Sinc, T_Sinc_DGLG,332.6, hit,1,0
1082,8, T_Scon, T_Scon_UGLG,304, incorrect,2,1
1083,8, T_Sinc, T_Sinc_DGLG,375.5, hit,1,0
1084,8, T_Sinc, T_Sinc_DGLG,331, incorrect,2,1
1085,8, T_Sinc, T_Sinc_URRR,402.3, hit,2,0
1086,8, T_Sinc, T_Sinc_DGLG,397.8, hit,1,0
1087,8, T_Scon, T_Scon_DRRR,397.2, incorrect,1,1
1088,8, T_Sinc, T_Sinc_DGLG,316.7, hit,1,0
1089,8, T_Sinc, T_Sinc_DGLG,440.1, hit,1,0
1090,8, T_Sinc, T_Sinc_URRR,483.5, incorrect,1,1
1091,8, T_Sinc, T_Sinc_URRR,367, hit,2,0
1092,8, T_Sinc, T_Sinc_URRR,358.5, hit,2,0
1093,8, T_Scon, T_Scon_UGLG,789.8, hit,1,0
1094,8, T_Sinc, T_Sinc_DGLG,361.3, incorrect,2,1
1095,8, T_Sinc, T_Sinc_URRR,324.7, hit,2,0
1096,8, T_Scon, T_Scon_DRRR,544.2, hit,2,0
1097,8, T_Sinc, T_Sinc_DGLG,379.7, hit,1,0
1098,8, T_Scon, T_Scon_UGLG,351.1, hit,1,0
1099,8, T_Sinc, T_Sinc_DGLG,418.5, hit,1,0
1100,8, T_Scon, T_Scon_UGLG,578, hit,1,0
1101,8, T_Sinc, T_Sinc_URRR,409.4, hit,2,0
1102,8, T_Sinc, T_Sinc_DGLG,0.1, miss,2371501,1
1103,8, T_Sinc, T_Sinc_DGLG,280.3, hit,1,0
1104,8, T_Sinc, T_Sinc_URRR,315.7, hit,2,0
1105,8, T_Scon, T_Scon_DRRR,771.2, hit,2,0
1106,8, T_Sinc, T_Sinc_DGLG,350.6, hit,1,0
1107,8, T_Sinc, T_Sinc_DGLG,370, hit,1,0
1108,8, T_Scon, T_Scon_DRRR,517.5, hit,2,0
1109,8, T_Sinc, T_Sinc_URRR,425, hit,2,0
1110,8, T_Scon, T_Scon_UGLG,400.3, incorrect,2,1
1111,8, T_Scon, T_Scon_DRRR,511.8, hit,2,0
1112,8, T_Scon, T_Scon_DRRR,579.2, hit,2,0
1113,8, T_Scon, T_Scon_UGLG,1350.6, hit,1,2
1114,8, T_Scon, T_Scon_UGLG,466.1, hit,1,0
1115,8, T_Sinc, T_Sinc_DGLG,349.5, hit,1,0
1116,8, T_Scon, T_Scon_DRRR,404.8, hit,2,0
1117,8, T_Scon, T_Scon_UGLG,300.2, hit,1,0
1118,8, T_Sinc, T_Sinc_DGLG,303.6, incorrect,2,1
1119,8, T_Sinc, T_Sinc_URRR,443, hit,2,0
1120,8, T_Sinc, T_Sinc_URRR,358.5, hit,2,0
1121,8, T_Sinc, T_Sinc_DGLG,329.9, hit,1,0
1122,8, T_Sinc, T_Sinc_DGLG,317.3, hit,1,0
1123,8, T_Sinc, T_Sinc_URRR,664.8, hit,2,0
1124,8, T_Scon, T_Scon_UGLG,392.2, hit,1,0
1125,8, T_Sinc, T_Sinc_DGLG,383.7, hit,1,0
1126,8, T_Sinc, T_Sinc_DGLG,319.1, hit,1,0
1127,8, T_Sinc, T_Sinc_URRR,418.5, hit,2,0
1128,8, T_Sinc, T_Sinc_URRR,362, hit,2,0
1129,8, T_Sinc, T_Sinc_URRR,621.4, hit,2,0
1130,8, T_Sinc, T_Sinc_URRR,464.8, hit,2,0
1131,8, T_Sinc, T_Sinc_URRR,292.3, hit,2,0
1132,8, T_Sinc, T_Sinc_URRR,295.8, hit,2,0
1133,8, T_Sinc, T_Sinc_URRR,439.1, hit,2,0
1134,8, T_Sinc, T_Sinc_URRR,274.6, hit,2,0
1135,8, T_Scon, T_Scon_UGLG,302.1, incorrect,2,1
1136,8, T_Scon, T_Scon_UGLG,353.4, hit,1,0
1137,8, T_Scon, T_Scon_UGLG,332.9, hit,1,0
1138,8, T_Sinc, T_Sinc_URRR,404.4, hit,2,0
1139,8, T_Sinc, T_Sinc_DGLG,507.8, hit,1,0
1140,8, T_Sinc, T_Sinc_URRR,827.2, hit,2,2
1141,8, T_Sinc, T_Sinc_DGLG,622.6, hit,1,0
1142,8, T_Scon, T_Scon_DRRR,414.1, hit,2,0
1143,8, T_Scon, T_Scon_DRRR,573.6, incorrect,1,1
1144,8, T_Sinc, T_Sinc_URRR,428.9, hit,2,0
1145,8, T_Sinc, T_Sinc_URRR,664.4, hit,2,0
1146,8, T_Sinc, T_Sinc_DGLG,371.9, hit,1,0
1147,8, T_Sinc, T_Sinc_DGLG,535.3, hit,1,0
1148,8, T_Sinc, T_Sinc_DGLG,330.8, hit,1,0
1149,8, T_Sinc, T_Sinc_URRR,446.2, hit,2,0
1150,8, T_Sinc, T_Sinc_DGLG,0.2, miss,3541752,1
1151,8, T_Sinc, T_Sinc_DGLG,0.2, miss,3562917,1
1152,9, T_Sinc, T_Sinc_URRR,370, hit,2,0
1153,9, T_Sinc, T_Sinc_DGLG,313.5, hit,1,0
1154,9, T_Scon, T_Scon_UGLG,312.9, hit,1,0
1155,9, T_Sinc, T_Sinc_DGLG,300.3, hit,1,0
1156,9, T_Scon, T_Scon_UGLG,291.8, hit,1,0
1157,9, T_Sinc, T_Sinc_URRR,327.1, hit,2,0
1158,9, T_Sinc, T_Sinc_URRR,318.6, incorrect,1,1
1159,9, T_Sinc, T_Sinc_DGLG,290, incorrect,2,1
1160,9, T_Scon, T_Scon_DRRR,357.5, hit,2,0
1161,9, T_Sinc, T_Sinc_DGLG,576.9, hit,1,0
1162,9, T_Scon, T_Scon_UGLG,360.3, hit,1,0
1163,9, T_Sinc, T_Sinc_URRR,603.8, hit,2,0
1164,9, T_Sinc, T_Sinc_DGLG,383.3, incorrect,2,1
1165,9, T_Sinc, T_Sinc_DGLG,390.6, incorrect,2,1
1166,9, T_Sinc, T_Sinc_DGLG,578.1, hit,1,0
1167,9, T_Scon, T_Scon_DRRR,377.6, hit,2,0
1168,9, T_Sinc, T_Sinc_URRR,797, hit,2,2
1169,9, T_Sinc, T_Sinc_DGLG,296.4, hit,1,0
1170,9, T_Sinc, T_Sinc_DGLG,347.8, hit,1,0
1171,9, T_Sinc, T_Sinc_URRR,379.3, hit,2,0
1172,9, T_Sinc, T_Sinc_URRR,510.8, hit,2,0
1173,9, T_Sinc, T_Sinc_URRR,346.1, hit,2,0
1174,9, T_Scon, T_Scon_UGLG,337.6, hit,1,0
1175,9, T_Sinc, T_Sinc_DGLG,637.1, hit,1,0
1176,9, T_Sinc, T_Sinc_URRR,392.5, incorrect,1,1
1177,9, T_Sinc, T_Sinc_URRR,419.9, hit,2,0
1178,9, T_Sinc, T_Sinc_URRR,527.4, hit,2,0
1179,9, T_Sinc, T_Sinc_URRR,322.8, hit,2,0
1180,9, T_Sinc, T_Sinc_URRR,494.2, hit,2,0
1181,9, T_Scon, T_Scon_UGLG,417.7, hit,1,0
1182,9, T_Sinc, T_Sinc_DGLG,361.1, hit,1,0
1183,9, T_Sinc, T_Sinc_URRR,460.6, hit,2,0
1184,9, T_Sinc, T_Sinc_DGLG,384, hit,1,0
1185,9, T_Scon, T_Scon_UGLG,591.5, hit,1,0
1186,9, T_Sinc, T_Sinc_URRR,387, hit,2,0
1187,9, T_Sinc, T_Sinc_URRR,538.3, hit,2,0
1188,9, T_Sinc, T_Sinc_URRR,485.6, hit,2,0
1189,9, T_Sinc, T_Sinc_DGLG,317, hit,1,0
1190,9, T_Sinc, T_Sinc_DGLG,384.4, hit,1,0
1191,9, T_Scon, T_Scon_DRRR,339.8, incorrect,1,1
1192,9, T_Sinc, T_Sinc_DGLG,307.3, hit,1,0
1193,9, T_Scon, T_Scon_DRRR,378.7, hit,2,0
1194,9, T_Sinc, T_Sinc_DGLG,398.1, hit,1,0
1195,9, T_Sinc, T_Sinc_URRR,357.6, hit,2,0
1196,9, T_Sinc, T_Sinc_DGLG,365.1, hit,1,0
1197,9, T_Sinc, T_Sinc_DGLG,416.5, hit,1,0
1198,9, T_Scon, T_Scon_UGLG,507.9, incorrect,2,1
1199,9, T_Scon, T_Scon_DRRR,583.3, hit,2,0
1200,9, T_Scon, T_Scon_UGLG,330.8, hit,1,0
1201,9, T_Sinc, T_Sinc_URRR,742.1, hit,2,0
1202,9, T_Scon, T_Scon_UGLG,393.6, hit,1,0
1203,9, T_Sinc, T_Sinc_URRR,397.1, hit,2,0
1204,9, T_Scon, T_Scon_DRRR,404.5, incorrect,1,1
1205,9, T_Sinc, T_Sinc_URRR,404, hit,2,0
1206,9, T_Sinc, T_Sinc_DGLG,375.4, hit,1,0
1207,9, T_Sinc, T_Sinc_URRR,398.8, hit,2,0
1208,9, T_Sinc, T_Sinc_URRR,342.3, hit,2,0
1209,9, T_Sinc, T_Sinc_URRR,569.7, hit,2,0
1210,9, T_Sinc, T_Sinc_DGLG,397.1, hit,1,0
1211,9, T_Sinc, T_Sinc_DGLG,328.6, hit,1,0
1212,9, T_Sinc, T_Sinc_DGLG,332.1, hit,1,0
1213,9, T_Scon, T_Scon_UGLG,483.5, hit,1,0
1214,9, T_Sinc, T_Sinc_URRR,478.9, hit,2,0
1215,9, T_Scon, T_Scon_DRRR,730.4, incorrect,1,1
1216,9, T_Scon, T_Scon_UGLG,421.8, hit,1,0
1217,9, T_Sinc, T_Sinc_DGLG,445.3, incorrect,2,1
1218,9, T_Sinc, T_Sinc_URRR,400.7, hit,2,0
1219,9, T_Sinc, T_Sinc_DGLG,364.1, hit,1,0
1220,9, T_Sinc, T_Sinc_URRR,859.6, hit,2,2
1221,9, T_Sinc, T_Sinc_DGLG,335, hit,1,0
1222,9, T_Sinc, T_Sinc_URRR,362.4, hit,2,0
1223,9, T_Scon, T_Scon_DRRR,301.9, incorrect,1,1
1224,9, T_Sinc, T_Sinc_DGLG,637.1, incorrect,2,1
1225,9, T_Sinc, T_Sinc_URRR,556.4, hit,2,0
1226,9, T_Sinc, T_Sinc_DGLG,331.9, hit,1,0
1227,9, T_Sinc, T_Sinc_DGLG,455.4, hit,1,0
1228,9, T_Scon, T_Scon_UGLG,334.8, hit,1,0
1229,9, T_Sinc, T_Sinc_URRR,482.2, hit,2,0
1230,9, T_Sinc, T_Sinc_URRR,349.7, hit,2,0
1231,9, T_Sinc, T_Sinc_URRR,305.1, hit,2,0
1232,9, T_Sinc, T_Sinc_URRR,296.6, hit,2,0
1233,9, T_Sinc, T_Sinc_URRR,268, hit,2,0
1234,9, T_Scon, T_Scon_UGLG,411.4, hit,1,0
1235,9, T_Sinc, T_Sinc_DGLG,406.9, incorrect,2,1
1236,9, T_Sinc, T_Sinc_DGLG,450.3, hit,1,0
1237,9, T_Sinc, T_Sinc_DGLG,329.7, hit,1,0
1238,9, T_Scon, T_Scon_DRRR,373.2, hit,2,0
1239,9, T_Sinc, T_Sinc_DGLG,396.7, hit,1,0
1240,9, T_Sinc, T_Sinc_DGLG,384, hit,1,0
1241,9, T_Sinc, T_Sinc_URRR,355.5, hit,2,0
1242,9, T_Sinc, T_Sinc_DGLG,918.9, hit,1,2
1243,9, T_Sinc, T_Sinc_DGLG,458.4, hit,1,0
1244,9, T_Sinc, T_Sinc_URRR,393.9, hit,2,0
1245,9, T_Sinc, T_Sinc_DGLG,329.2, hit,1,0
1246,9, T_Sinc, T_Sinc_DGLG,348.7, hit,1,0
1247,9, T_Sinc, T_Sinc_DGLG,336.2, hit,1,0
1248,9, T_Scon, T_Scon_UGLG,291.6, hit,1,0
1249,9, T_Sinc, T_Sinc_URRR,587, hit,2,0
1250,9, T_Sinc, T_Sinc_URRR,362.4, hit,2,0
1251,9, T_Sinc, T_Sinc_URRR,373.9, hit,2,0
1252,9, T_Sinc, T_Sinc_URRR,297.4, hit,2,0
1253,9, T_Sinc, T_Sinc_DGLG,456.7, hit,1,0
1254,9, T_Sinc, T_Sinc_DGLG,324.2, hit,1,0
1255,9, T_Scon, T_Scon_UGLG,359.7, hit,1,0
1256,9, T_Sinc, T_Sinc_URRR,291.1, incorrect,1,1
1257,9, T_Sinc, T_Sinc_URRR,350.5, hit,2,0
1258,9, T_Sinc, T_Sinc_DGLG,378, hit,1,0
1259,9, T_Sinc, T_Sinc_DGLG,349.4, hit,1,0
1260,9, T_Sinc, T_Sinc_URRR,448.6, hit,2,0
1261,9, T_Sinc, T_Sinc_URRR,324, hit,2,0
1262,9, T_Scon, T_Scon_UGLG,543.5, hit,1,0
1263,9, T_Sinc, T_Sinc_DGLG,419, hit,1,0
1264,9, T_Sinc, T_Sinc_DGLG,354.3, hit,1,0
1265,9, T_Sinc, T_Sinc_URRR,405.8, hit,2,0
1266,9, T_Sinc, T_Sinc_DGLG,361.2, hit,1,0
1267,9, T_Sinc, T_Sinc_URRR,340.6, hit,2,0
1268,9, T_Scon, T_Scon_DRRR,280.1, incorrect,1,1
1269,9, T_Sinc, T_Sinc_URRR,339.5, hit,2,0
1270,9, T_Scon, T_Scon_UGLG,479, hit,1,0
1271,9, T_Sinc, T_Sinc_URRR,402.4, hit,2,0
1272,9, T_Sinc, T_Sinc_DGLG,345.8, hit,1,0
1273,9, T_Scon, T_Scon_DRRR,437.3, hit,2,0
1274,9, T_Sinc, T_Sinc_URRR,552.8, incorrect,1,1
1275,9, T_Sinc, T_Sinc_DGLG,404.1, hit,1,0
1276,9, T_Sinc, T_Sinc_DGLG,343.6, hit,1,0
1277,9, T_Scon, T_Scon_DRRR,351.1, hit,2,0
1278,9, T_Scon, T_Scon_DRRR,618.5, hit,2,0
1279,9, T_Sinc, T_Sinc_URRR,613.9, hit,2,0
1280,9, T_Sinc, T_Sinc_URRR,317.3, hit,2,0
1281,9, T_Scon, T_Scon_DRRR,460.8, hit,2,0
1282,9, T_Sinc, T_Sinc_DGLG,332.2, incorrect,2,1
1283,9, T_Scon, T_Scon_DRRR,351.6, hit,2,0
1284,9, T_Scon, T_Scon_UGLG,415.1, hit,1,0
1285,9, T_Sinc, T_Sinc_URRR,546.5, hit,2,0
1286,9, T_Sinc, T_Sinc_DGLG,466, hit,1,0
1287,9, T_Sinc, T_Sinc_DGLG,313.4, hit,1,0
1288,9, T_Sinc, T_Sinc_DGLG,356.9, hit,1,0
1289,9, T_Scon, T_Scon_DRRR,600.3, hit,2,0
1290,9, T_Sinc, T_Sinc_URRR,419.8, hit,2,0
1291,9, T_Sinc, T_Sinc_DGLG,563.2, hit,1,0
1292,9, T_Scon, T_Scon_DRRR,406.6, hit,2,0
1293,9, T_Sinc, T_Sinc_DGLG,442, hit,1,0
1294,9, T_Scon, T_Scon_DRRR,509.5, hit,2,0
1295,9, T_Sinc, T_Sinc_URRR,416.9, hit,2,0
