trial_index, block, condition, full_condition_code, RT, response_type, response_key, error_outlier
1, 1, T_Sinc, T_Sinc_UGRG, 432.8, hit, 2, 0
2, 1, T_Scon, T_Scon_URLR, 364.3, hit, 1, 0
3, 1, T_Scon, T_Scon_DGRG, 347.6, hit, 2, 0
4, 1, T_Scon, T_Scon_DGRG, 335.1, hit, 2, 0
5, 1, T_Scon, T_Scon_URLR, 306.6, hit, 1, 0
6, 1, T_Scon, T_Scon_URLR, 326.0, hit, 1, 0
7, 1, T_Sinc, T_Sinc_DRLR, 337.4, incorrect, 2, 1
8, 1, T_Sinc, T_Sinc_UGRG, 388.9, hit, 2, 0
9, 1, T_Scon, T_Scon_URLR, 336.3, hit, 1, 0
10, 1, T_Scon, T_Scon_DGRG, 367.8, hit, 2, 0
11, 1, T_Sinc, T_Sinc_UGRG, 383.2, hit, 2, 0
12, 1, T_Scon, T_Scon_URLR, 394.6, hit, 1, 0
13, 1, T_Scon, T_Scon_DGRG, 390.1, hit, 2, 0
14, 1, T_Sinc, T_Sinc_UGRG, 317.5, hit, 2, 0
15, 1, T_Scon, T_Scon_URLR, 344.9, hit, 1, 0
16, 1, T_Scon, T_Scon_URLR, 348.4, hit, 1, 0
17, 1, T_Sinc, T_Sinc_UGRG, 483.8, hit, 2, 0
18, 1, T_Scon, T_Scon_DGRG, 471.2, hit, 2, 0
19, 1, T_Scon, T_Scon_DGRG, 354.7, hit, 2, 0
20, 1, T_Sinc, T_Sinc_UGRG, 314.1, hit, 2, 0
21, 1, T_Scon, T_Scon_DGRG, 385.6, hit, 2, 0
22, 1, T_Sinc, T_Sinc_UGRG, 301.0, hit, 2, 0
23, 1, T_Sinc, T_Sinc_UGRG, 304.4, hit, 2, 0
24, 1, T_Sinc, T_Sinc_DRLR, 343.9, hit, 1, 0
25, 1, T_Scon, T_Scon_URLR, 247.3, hit, 1, 0
26, 1, T_Sinc, T_Sinc_UGRG, 342.7, hit, 2, 0
27, 1, T_Sinc, T_Sinc_DRLR, 342.2, hit, 1, 0
28, 1, T_Scon, T_Scon_URLR, 281.6, hit, 1, 0
29, 1, T_Sinc, T_Sinc_UGRG, 761.0, hit, 2, 2
30, 1, T_Scon, T_Scon_URLR, 388.5, hit, 1, 0
31, 1, T_Sinc, T_Sinc_DRLR, 311.9, hit, 1, 0
32, 1, T_Sinc, T_Sinc_DRLR, 347.4, hit, 1, 0
33, 1, T_Sinc, T_Sinc_DRLR, 262.8, hit, 1, 0
34, 1, T_Scon, T_Scon_URLR, 298.2, hit, 1, 0
35, 1, T_Sinc, T_Sinc_UGRG, 293.7, hit, 2, 0
36, 1, T_Sinc, T_Sinc_DRLR, 301.1, hit, 1, 0
37, 1, T_Scon, T_Scon_DGRG, 508.2, hit, 2, 0
38, 1, T_Sinc, T_Sinc_DRLR, 327.7, hit, 1, 0
39, 1, T_Sinc, T_Sinc_UGRG, 351.1, hit, 2, 0
40, 1, T_Sinc, T_Sinc_DRLR, 338.6, hit, 1, 0
41, 1, T_Sinc, T_Sinc_DRLR, 286.0, hit, 1, 0
42, 1, T_Sinc, T_Sinc_UGRG, 401.4, hit, 2, 0
43, 1, T_Scon, T_Scon_URLR, 432.9, hit, 1, 0
44, 1, T_Sinc, T_Sinc_UGRG, 348.3, hit, 2, 0
45, 1, T_Sinc, T_Sinc_DRLR, 419.8, hit, 1, 0
46, 1, T_Scon, T_Scon_URLR, 355.1, hit, 1, 0
47, 1, T_Sinc, T_Sinc_DRLR, 330.6, hit, 1, 0
48, 1, T_Scon, T_Scon_DGRG, 710.1, hit, 2, 2
49, 1, T_Sinc, T_Sinc_DRLR, 521.5, hit, 1, 0
50, 1, T_Sinc, T_Sinc_DRLR, 276.9, hit, 1, 0
51, 1, T_Scon, T_Scon_DGRG, 404.4, hit, 2, 0
52, 1, T_Sinc, T_Sinc_DRLR, 399.8, hit, 1, 0
53, 1, T_Sinc, T_Sinc_UGRG, 335.3, hit, 2, 0
54, 1, T_Sinc, T_Sinc_UGRG, 290.7, hit, 2, 0
55, 1, T_Sinc, T_Sinc_UGRG, 286.1, hit, 2, 0
56, 1, T_Sinc, T_Sinc_UGRG, 285.6, hit, 2, 0
57, 1, T_Scon, T_Scon_URLR, 448.9, hit, 1, 0
58, 1, T_Sinc, T_Sinc_DRLR, 412.4, hit, 1, 0
59, 1, T_Scon, T_Scon_URLR, 447.9, hit, 1, 0
60, 1, T_Scon, T_Scon_DGRG, 267.3, incorrect, 1, 1
61, 1, T_Sinc, T_Sinc_UGRG, 458.7, hit, 2, 0
62, 1, T_Sinc, T_Sinc_DRLR, 422.2, hit, 1, 0
63, 1, T_Sinc, T_Sinc_DRLR, 689.6, hit, 1, 2
64, 1, T_Scon, T_Scon_DGRG, 349.1, hit, 2, 0
65, 1, T_Sinc, T_Sinc_DRLR, 288.5, hit, 1, 0
66, 1, T_Scon, T_Scon_DGRG, 407.9, hit, 2, 0
67, 1, T_Sinc, T_Sinc_DRLR, 451.3, hit, 1, 0
68, 1, T_Sinc, T_Sinc_DRLR, 358.9, hit, 1, 0
69, 1, T_Scon, T_Scon_DGRG, 342.2, hit, 2, 0
70, 1, T_Sinc, T_Sinc_DRLR, 361.7, hit, 1, 0
71, 1, T_Scon, T_Scon_DGRG, 389.1, hit, 2, 0
72, 1, T_Sinc, T_Sinc_DRLR, 368.5, hit, 1, 0
73, 1, T_Scon, T_Scon_DGRG, 399.7, hit, 2, 0
74, 1, T_Sinc, T_Sinc_UGRG, 443.2, hit, 2, 0
75, 1, T_Sinc, T_Sinc_DRLR, 382.5, hit, 1, 0
76, 1, T_Scon, T_Scon_URLR, 330.0, hit, 1, 0
77, 1, T_Scon, T_Scon_URLR, 333.5, hit, 1, 0
78, 1, T_Sinc, T_Sinc_DRLR, 336.8, hit, 1, 0
79, 1, T_Sinc, T_Sinc_DRLR, 364.3, hit, 1, 0
80, 1, T_Scon, T_Scon_DGRG, 415.8, hit, 2, 0
81, 1, T_Scon, T_Scon_DGRG, 319.2, hit, 2, 0
82, 1, T_Sinc, T_Sinc_UGRG, 306.6, hit, 2, 0
83, 1, T_Scon, T_Scon_URLR, 310.1, hit, 1, 0
84, 1, T_Sinc, T_Sinc_UGRG, 361.5, hit, 2, 0
85, 1, T_Sinc, T_Sinc_UGRG, 321.0, hit, 2, 0
86, 1, T_Scon, T_Scon_URLR, 332.4, hit, 1, 0
87, 1, T_Scon, T_Scon_DGRG, 427.8, hit, 2, 0
88, 1, T_Scon, T_Scon_DGRG, 327.3, hit, 2, 0
89, 1, T_Sinc, T_Sinc_UGRG, 286.8, hit, 2, 0
90, 1, T_Scon, T_Scon_DGRG, 406.1, hit, 2, 0
91, 1, T_Sinc, T_Sinc_UGRG, 301.6, hit, 2, 0
92, 1, T_Scon, T_Scon_URLR, 273.0, hit, 1, 0
93, 1, T_Sinc, T_Sinc_DRLR, 372.4, hit, 1, 0
94, 1, T_Scon, T_Scon_DGRG, 443.9, hit, 2, 0
95, 1, T_Sinc, T_Sinc_DRLR, 447.3, hit, 1, 0
96, 1, T_Sinc, T_Sinc_UGRG, 502.8, hit, 2, 0
97, 1, T_Scon, T_Scon_URLR, 666.1, hit, 1, 2
98, 1, T_Scon, T_Scon_DGRG, 453.6, hit, 2, 0
99, 1, T_Scon, T_Scon_DGRG, 337.1, hit, 2, 0
100, 1, T_Sinc, T_Sinc_UGRG, 496.5, hit, 2, 0
101, 1, T_Sinc, T_Sinc_DRLR, 391.9, hit, 1, 0
102, 1, T_Scon, T_Scon_URLR, 327.4, hit, 1, 0
103, 1, T_Scon, T_Scon_URLR, 390.8, hit, 1, 0
104, 1, T_Scon, T_Scon_DGRG, 386.3, hit, 2, 0
105, 1, T_Scon, T_Scon_DGRG, 293.7, hit, 2, 0
106, 1, T_Sinc, T_Sinc_UGRG, 341.1, hit, 2, 0
107, 1, T_Scon, T_Scon_DGRG, 284.6, hit, 2, 0
108, 1, T_Scon, T_Scon_DGRG, 372.0, hit, 2, 0
109, 1, T_Scon, T_Scon_URLR, 347.1, hit, 1, 0
110, 1, T_Sinc, T_Sinc_UGRG, 398.6, hit, 2, 0
111, 1, T_Scon, T_Scon_URLR, 350.0, hit, 1, 0
112, 1, T_Scon, T_Scon_URLR, 297.5, hit, 1, 0
113, 1, T_Sinc, T_Sinc_UGRG, 428.9, hit, 2, 0
114, 1, T_Sinc, T_Sinc_DRLR, 340.3, hit, 1, 0
115, 1, T_Scon, T_Scon_URLR, 271.8, hit, 1, 0
116, 1, T_Sinc, T_Sinc_DRLR, 363.2, hit, 1, 0
117, 1, T_Scon, T_Scon_URLR, 294.7, hit, 1, 0
118, 1, T_Scon, T_Scon_URLR, 290.0, hit, 1, 0
119, 1, T_Scon, T_Scon_URLR, 293.5, hit, 1, 0
120, 1, T_Sinc, T_Sinc_UGRG, 405.0, hit, 2, 0
121, 1, T_Sinc, T_Sinc_DRLR, 368.3, hit, 1, 0
122, 1, T_Scon, T_Scon_DGRG, 723.8, hit, 2, 2
123, 1, T_Scon, T_Scon_DGRG, 319.3, hit, 2, 0
124, 1, T_Scon, T_Scon_DGRG, 286.7, hit, 2, 0
125, 1, T_Sinc, T_Sinc_DRLR, 342.1, hit, 1, 0
126, 1, T_Scon, T_Scon_URLR, 433.6, hit, 1, 0
127, 1, T_Sinc, T_Sinc_UGRG, 517.0, hit, 2, 0
128, 1, T_Sinc, T_Sinc_UGRG, 328.5, hit, 2, 0
129, 1, T_Scon, T_Scon_DGRG, 259.9, incorrect, 1, 1
130, 1, T_Scon, T_Scon_URLR, 355.3, hit, 1, 0
131, 1, T_Sinc, T_Sinc_DRLR, 438.8, hit, 1, 0
132, 1, T_Scon, T_Scon_DGRG, 370.2, hit, 2, 0
133, 1, T_Sinc, T_Sinc_UGRG, 349.6, hit, 2, 0
134, 1, T_Scon, T_Scon_URLR, 457.1, hit, 1, 0
135, 1, T_Sinc, T_Sinc_UGRG, 484.5, hit, 2, 0
136, 1, T_Scon, T_Scon_DGRG, 415.9, hit, 2, 0
137, 1, T_Scon, T_Scon_DGRG, 403.4, hit, 2, 0
138, 1, T_Sinc, T_Sinc_UGRG, 422.8, hit, 2, 0
139, 1, T_Scon, T_Scon_DGRG, 354.2, incorrect, 1, 1
140, 1, T_Sinc, T_Sinc_DRLR, 325.7, hit, 1, 0
141, 1, T_Sinc, T_Sinc_DRLR, 457.1, hit, 1, 0
142, 1, T_Scon, T_Scon_URLR, 356.6, hit, 1, 0
143, 1, T_Scon, T_Scon_URLR, 380.0, hit, 1, 0
144, 1, T_Scon, T_Scon_URLR, 355.4, hit, 1, 0
145, 2, T_Sinc, T_Sinc_DRLR, 430.6, hit, 1, 0
146, 2, T_Scon, T_Scon_URLR, 350.0, hit, 1, 0
147, 2, T_Scon, T_Scon_DGRG, 345.4, hit, 2, 0
148, 2, T_Scon, T_Scon_URLR, 332.8, hit, 1, 0
149, 2, T_Sinc, T_Sinc_DRLR, 336.3, hit, 1, 0
150, 2, T_Scon, T_Scon_DGRG, 343.8, hit, 2, 0
151, 2, T_Sinc, T_Sinc_DRLR, 355.1, hit, 1, 0
152, 2, T_Sinc, T_Sinc_UGRG, 338.6, hit, 2, 0
153, 2, T_Sinc, T_Sinc_DRLR, 350.1, hit, 1, 0
154, 2, T_Scon, T_Scon_URLR, 313.5, hit, 1, 0
155, 2, T_Scon, T_Scon_URLR, 268.9, hit, 1, 0
156, 2, T_Sinc, T_Sinc_DRLR, 380.4, hit, 1, 0
157, 2, T_Scon, T_Scon_DGRG, 479.8, hit, 2, 0
158, 2, T_Sinc, T_Sinc_DRLR, 371.2, hit, 1, 0
159, 2, T_Sinc, T_Sinc_DRLR, 326.6, hit, 1, 0
160, 2, T_Scon, T_Scon_URLR, 278.1, hit, 1, 0
161, 2, T_Scon, T_Scon_DGRG, 341.5, hit, 2, 0
162, 2, T_Sinc, T_Sinc_DRLR, 360.9, hit, 1, 0
163, 2, T_Scon, T_Scon_URLR, 380.4, hit, 1, 0
164, 2, T_Scon, T_Scon_DGRG, 367.9, hit, 2, 0
165, 2, T_Scon, T_Scon_URLR, 331.2, hit, 1, 0
166, 2, T_Sinc, T_Sinc_UGRG, 394.7, hit, 2, 0
167, 2, T_Scon, T_Scon_DGRG, 366.2, hit, 2, 0
168, 2, T_Sinc, T_Sinc_DRLR, 425.5, hit, 1, 0
169, 2, T_Sinc, T_Sinc_DRLR, 413.0, hit, 1, 0
170, 2, T_Scon, T_Scon_DGRG, 368.5, hit, 2, 0
171, 2, T_Sinc, T_Sinc_DRLR, 371.8, hit, 1, 0
172, 2, T_Scon, T_Scon_DGRG, 387.3, hit, 2, 0
173, 2, T_Sinc, T_Sinc_UGRG, 322.8, hit, 2, 0
174, 2, T_Scon, T_Scon_DGRG, 382.2, hit, 2, 0
175, 2, T_Scon, T_Scon_DGRG, 377.6, hit, 2, 0
176, 2, T_Scon, T_Scon_URLR, 417.0, hit, 1, 0
177, 2, T_Scon, T_Scon_URLR, 272.5, hit, 1, 0
178, 2, T_Scon, T_Scon_DGRG, 459.9, hit, 2, 0
179, 2, T_Sinc, T_Sinc_UGRG, 335.3, hit, 2, 0
180, 2, T_Sinc, T_Sinc_UGRG, 314.8, hit, 2, 0
181, 2, T_Sinc, T_Sinc_UGRG, 410.0, hit, 2, 0
182, 2, T_Sinc, T_Sinc_UGRG, 261.4, hit, 2, 0
183, 2, T_Scon, T_Scon_URLR, 340.8, hit, 1, 0
184, 2, T_Scon, T_Scon_URLR, 272.3, hit, 1, 0
185, 2, T_Sinc, T_Sinc_DRLR, 319.8, hit, 1, 0
186, 2, T_Scon, T_Scon_DGRG, 411.1, hit, 2, 0
187, 2, T_Scon, T_Scon_URLR, 490.6, hit, 1, 0
188, 2, T_Scon, T_Scon_URLR, 334.1, hit, 1, 0
189, 2, T_Scon, T_Scon_DGRG, 393.4, hit, 2, 0
190, 2, T_Sinc, T_Sinc_UGRG, 380.9, hit, 2, 0
191, 2, T_Sinc, T_Sinc_DRLR, 392.3, hit, 1, 0
192, 2, T_Sinc, T_Sinc_DRLR, 383.7, hit, 1, 0
193, 2, T_Scon, T_Scon_URLR, 335.2, hit, 1, 0
194, 2, T_Scon, T_Scon_DGRG, 418.6, hit, 2, 0
195, 2, T_Sinc, T_Sinc_DRLR, 398.1, hit, 1, 0
196, 2, T_Sinc, T_Sinc_DRLR, 453.5, hit, 1, 0
197, 2, T_Scon, T_Scon_URLR, 268.9, hit, 1, 0
198, 2, T_Scon, T_Scon_DGRG, 360.4, hit, 2, 0
199, 2, T_Sinc, T_Sinc_UGRG, 331.9, hit, 2, 0
200, 2, T_Scon, T_Scon_DGRG, 283.2, hit, 2, 0
201, 2, T_Sinc, T_Sinc_UGRG, 310.7, hit, 2, 0
202, 2, T_Sinc, T_Sinc_UGRG, 310.2, hit, 2, 0
203, 2, T_Sinc, T_Sinc_UGRG, 273.5, hit, 2, 0
204, 2, T_Scon, T_Scon_DGRG, 333.0, hit, 2, 0
205, 2, T_Scon, T_Scon_DGRG, 280.4, hit, 2, 0
206, 2, T_Sinc, T_Sinc_DRLR, 343.9, hit, 1, 0
207, 2, T_Scon, T_Scon_URLR, 379.3, hit, 1, 0
208, 2, T_Scon, T_Scon_URLR, 266.7, hit, 1, 0
209, 2, T_Sinc, T_Sinc_DRLR, 266.2, hit, 1, 0
210, 2, T_Scon, T_Scon_DGRG, 437.7, hit, 2, 0
211, 2, T_Sinc, T_Sinc_UGRG, 321.0, hit, 2, 0
212, 2, T_Scon, T_Scon_DGRG, 300.5, hit, 2, 0
213, 2, T_Scon, T_Scon_URLR, 348.0, hit, 1, 0
214, 2, T_Scon, T_Scon_URLR, 263.4, hit, 1, 0
215, 2, T_Sinc, T_Sinc_UGRG, 318.8, incorrect, 1, 1
216, 2, T_Sinc, T_Sinc_UGRG, 306.2, hit, 2, 0
217, 2, T_Sinc, T_Sinc_DRLR, 373.5, hit, 1, 0
218, 2, T_Sinc, T_Sinc_UGRG, 352.8, hit, 2, 0
219, 2, T_Scon, T_Scon_DGRG, 332.3, hit, 2, 0
220, 2, T_Scon, T_Scon_DGRG, 339.7, hit, 2, 0
221, 2, T_Scon, T_Scon_URLR, 335.1, hit, 1, 0
222, 2, T_Scon, T_Scon_DGRG, 402.6, hit, 2, 0
223, 2, T_Scon, T_Scon_URLR, 370.0, hit, 1, 0
224, 2, T_Scon, T_Scon_URLR, 313.4, hit, 1, 0
225, 2, T_Scon, T_Scon_URLR, 284.9, hit, 1, 0
226, 2, T_Sinc, T_Sinc_UGRG, 432.3, hit, 2, 0
227, 2, T_Sinc, T_Sinc_DRLR, 415.8, hit, 1, 0
228, 2, T_Sinc, T_Sinc_UGRG, 531.2, hit, 2, 0
229, 2, T_Sinc, T_Sinc_DRLR, 438.6, hit, 1, 0
230, 2, T_Scon, T_Scon_URLR, 458.1, hit, 1, 0
231, 2, T_Scon, T_Scon_URLR, 349.6, hit, 1, 0
232, 2, T_Sinc, T_Sinc_DRLR, 380.9, hit, 1, 0
233, 2, T_Scon, T_Scon_DGRG, 384.4, hit, 2, 0
234, 2, T_Scon, T_Scon_DGRG, 355.8, hit, 2, 0
235, 2, T_Sinc, T_Sinc_DRLR, 471.3, hit, 1, 0
236, 2, T_Sinc, T_Sinc_DRLR, 294.7, hit, 1, 0
237, 2, T_Sinc, T_Sinc_UGRG, 370.1, hit, 2, 0
238, 2, T_Sinc, T_Sinc_DRLR, 457.6, hit, 1, 0
239, 2, T_Sinc, T_Sinc_UGRG, 357.1, hit, 2, 0
240, 2, T_Sinc, T_Sinc_UGRG, 464.4, hit, 2, 0
241, 2, T_Scon, T_Scon_URLR, 387.9, hit, 1, 0
242, 2, T_Scon, T_Scon_URLR, 303.4, hit, 1, 0
243, 2, T_Sinc, T_Sinc_UGRG, 434.7, hit, 2, 0
244, 2, T_Scon, T_Scon_DGRG, 446.2, hit, 2, 0
245, 2, T_Scon, T_Scon_DGRG, 385.7, hit, 2, 0
246, 2, T_Sinc, T_Sinc_UGRG, 413.1, hit, 2, 0
247, 2, T_Scon, T_Scon_URLR, 480.5, hit, 1, 0
248, 2, T_Scon, T_Scon_DGRG, 467.9, hit, 2, 0
249, 2, T_Scon, T_Scon_URLR, 419.4, hit, 1, 0
250, 2, T_Scon, T_Scon_DGRG, 398.8, hit, 2, 0
251, 2, T_Sinc, T_Sinc_UGRG, 386.2, hit, 2, 0
252, 2, T_Sinc, T_Sinc_DRLR, 453.7, hit, 1, 0
253, 2, T_Sinc, T_Sinc_UGRG, 444.8, hit, 2, 0
254, 2, T_Sinc, T_Sinc_UGRG, 360.3, hit, 2, 0
255, 2, T_Scon, T_Scon_URLR, 435.7, hit, 1, 0
256, 2, T_Sinc, T_Sinc_UGRG, 367.1, hit, 2, 0
257, 2, T_Sinc, T_Sinc_DRLR, 402.6, hit, 1, 0
258, 2, T_Sinc, T_Sinc_UGRG, 570.0, hit, 2, 0
259, 2, T_Scon, T_Scon_DGRG, 461.5, hit, 2, 0
260, 2, T_Scon, T_Scon_URLR, 440.9, hit, 1, 0
261, 2, T_Scon, T_Scon_DGRG, 456.3, hit, 2, 0
262, 2, T_Sinc, T_Sinc_DRLR, 431.8, hit, 1, 0
263, 2, T_Sinc, T_Sinc_UGRG, 455.2, hit, 2, 0
264, 2, T_Scon, T_Scon_DGRG, 366.6, hit, 2, 0
265, 2, T_Sinc, T_Sinc_DRLR, 422.1, hit, 1, 0
266, 2, T_Sinc, T_Sinc_UGRG, 485.5, hit, 2, 0
267, 2, T_Scon, T_Scon_URLR, 833.0, hit, 1, 2
268, 2, T_Scon, T_Scon_DGRG, 360.4, hit, 2, 0
269, 2, T_Scon, T_Scon_DGRG, 339.8, hit, 2, 0
270, 2, T_Sinc, T_Sinc_UGRG, 443.3, hit, 2, 0
271, 2, T_Sinc, T_Sinc_DRLR, 486.8, hit, 1, 0
272, 2, T_Scon, T_Scon_URLR, 506.1, hit, 1, 0
273, 2, T_Sinc, T_Sinc_UGRG, 365.6, hit, 2, 0
274, 2, T_Sinc, T_Sinc_DRLR, 641.0, hit, 1, 2
275, 2, T_Sinc, T_Sinc_DRLR, 332.4, hit, 1, 0
276, 2, T_Sinc, T_Sinc_DRLR, 567.9, hit, 1, 0
277, 2, T_Sinc, T_Sinc_DRLR, 331.3, hit, 1, 0
278, 2, T_Scon, T_Scon_DGRG, 390.8, hit, 2, 0
279, 2, T_Sinc, T_Sinc_DRLR, 438.2, hit, 1, 0
280, 2, T_Scon, T_Scon_URLR, 385.6, hit, 1, 0
281, 2, T_Scon, T_Scon_URLR, 289.1, hit, 1, 0
282, 2, T_Sinc, T_Sinc_UGRG, 412.5, hit, 2, 0
283, 2, T_Sinc, T_Sinc_UGRG, 375.9, hit, 2, 0
284, 2, T_Scon, T_Scon_DGRG, 295.4, hit, 2, 0
285, 2, T_Sinc, T_Sinc_UGRG, 366.9, hit, 2, 0
286, 2, T_Scon, T_Scon_URLR, 366.2, hit, 1, 0
287, 2, T_Sinc, T_Sinc_DRLR, 369.7, hit, 1, 0
288, 2, T_Sinc, T_Sinc_UGRG, 341.2, hit, 2, 0
289, 3, T_Sinc, T_Sinc_UGRG, 599.7, hit, 2, 0
290, 3, T_Scon, T_Scon_URLR, 423.2, hit, 1, 0
291, 3, T_Sinc, T_Sinc_UGRG, 346.6, hit, 2, 0
292, 3, T_Sinc, T_Sinc_UGRG, 258.1, hit, 2, 0
293, 3, T_Sinc, T_Sinc_UGRG, 253.5, hit, 2, 0
294, 3, T_Scon, T_Scon_URLR, 332.9, hit, 1, 0
295, 3, T_Sinc, T_Sinc_UGRG, 336.4, incorrect, 1, 1
296, 3, T_Sinc, T_Sinc_UGRG, 271.8, hit, 2, 0
297, 3, T_Sinc, T_Sinc_DRLR, 443.2, hit, 1, 0
298, 3, T_Sinc, T_Sinc_UGRG, 362.7, hit, 2, 0
299, 3, T_Sinc, T_Sinc_UGRG, 382.1, hit, 2, 0
300, 3, T_Sinc, T_Sinc_UGRG, 301.5, hit, 2, 0
301, 3, T_Scon, T_Scon_URLR, 401.0, hit, 1, 0
302, 3, T_Sinc, T_Sinc_UGRG, 340.4, hit, 2, 0
303, 3, T_Sinc, T_Sinc_UGRG, 311.8, hit, 2, 0
304, 3, T_Scon, T_Scon_DGRG, 391.3, hit, 2, 0
305, 3, T_Sinc, T_Sinc_DRLR, 374.7, hit, 1, 0
306, 3, T_Scon, T_Scon_URLR, 338.2, hit, 1, 0
307, 3, T_Sinc, T_Sinc_DRLR, 353.6, hit, 1, 0
308, 3, T_Scon, T_Scon_DGRG, 469.0, hit, 2, 0
309, 3, T_Sinc, T_Sinc_DRLR, 416.5, hit, 1, 0
310, 3, T_Sinc, T_Sinc_DRLR, 347.9, hit, 1, 0
311, 3, T_Sinc, T_Sinc_DRLR, 371.3, hit, 1, 0
312, 3, T_Scon, T_Scon_URLR, 414.8, hit, 1, 0
313, 3, T_Sinc, T_Sinc_UGRG, 442.2, hit, 2, 0
314, 3, T_Sinc, T_Sinc_UGRG, 381.7, hit, 2, 0
315, 3, T_Scon, T_Scon_DGRG, 505.1, hit, 2, 0
316, 3, T_Scon, T_Scon_URLR, 444.5, hit, 1, 0
317, 3, T_Sinc, T_Sinc_UGRG, 324.0, incorrect, 1, 1
318, 3, T_Scon, T_Scon_DGRG, 311.5, hit, 2, 0
319, 3, T_Scon, T_Scon_DGRG, 398.8, hit, 2, 0
320, 3, T_Sinc, T_Sinc_DRLR, 434.3, hit, 1, 0
321, 3, T_Sinc, T_Sinc_DRLR, 429.8, hit, 1, 0
322, 3, T_Sinc, T_Sinc_UGRG, 425.1, hit, 2, 0
323, 3, T_Scon, T_Scon_URLR, 396.6, hit, 1, 0
324, 3, T_Scon, T_Scon_DGRG, 368.0, hit, 2, 0
325, 3, T_Sinc, T_Sinc_UGRG, 499.2, hit, 2, 0
326, 3, T_Scon, T_Scon_URLR, 438.6, hit, 1, 0
327, 3, T_Sinc, T_Sinc_DRLR, 326.1, hit, 1, 0
328, 3, T_Sinc, T_Sinc_UGRG, 385.5, hit, 2, 0
329, 3, T_Scon, T_Scon_DGRG, 404.9, hit, 2, 0
330, 3, T_Sinc, T_Sinc_DRLR, 360.4, hit, 1, 0
331, 3, T_Scon, T_Scon_DGRG, 419.8, hit, 2, 0
332, 3, T_Scon, T_Scon_URLR, 447.2, hit, 1, 0
333, 3, T_Sinc, T_Sinc_DRLR, 390.7, hit, 1, 0
334, 3, T_Sinc, T_Sinc_UGRG, 322.1, hit, 2, 0
335, 3, T_Scon, T_Scon_URLR, 365.6, hit, 1, 0
336, 3, T_Scon, T_Scon_DGRG, 409.0, hit, 2, 0
337, 3, T_Sinc, T_Sinc_UGRG, 440.4, hit, 2, 0
338, 3, T_Sinc, T_Sinc_DRLR, 443.9, hit, 1, 0
339, 3, T_Sinc, T_Sinc_UGRG, 443.3, hit, 2, 0
340, 3, T_Scon, T_Scon_DGRG, 406.7, hit, 2, 0
341, 3, T_Sinc, T_Sinc_DRLR, 378.2, hit, 1, 0
342, 3, T_Scon, T_Scon_URLR, 329.6, hit, 1, 0
343, 3, T_Sinc, T_Sinc_DRLR, 389.0, hit, 1, 0
344, 3, T_Scon, T_Scon_URLR, 364.5, hit, 1, 0
345, 3, T_Scon, T_Scon_URLR, 403.9, hit, 1, 0
346, 3, T_Sinc, T_Sinc_UGRG, 403.3, hit, 2, 0
347, 3, T_Scon, T_Scon_URLR, 406.8, hit, 1, 0
348, 3, T_Sinc, T_Sinc_DRLR, 418.2, hit, 1, 0
349, 3, T_Sinc, T_Sinc_UGRG, 425.7, hit, 2, 0
350, 3, T_Sinc, T_Sinc_DRLR, 405.1, hit, 1, 0
351, 3, T_Sinc, T_Sinc_DRLR, 412.5, hit, 1, 0
352, 3, T_Sinc, T_Sinc_DRLR, 412.0, hit, 1, 0
353, 3, T_Sinc, T_Sinc_DRLR, 403.4, hit, 1, 0
354, 3, T_Scon, T_Scon_DGRG, 366.8, hit, 2, 0
355, 3, T_Scon, T_Scon_URLR, 426.3, hit, 1, 0
356, 3, T_Sinc, T_Sinc_UGRG, 513.7, hit, 2, 0
357, 3, T_Scon, T_Scon_DGRG, 389.2, hit, 2, 0
358, 3, T_Scon, T_Scon_DGRG, 456.6, hit, 2, 0
359, 3, T_Sinc, T_Sinc_DRLR, 392.0, hit, 1, 0
360, 3, T_Scon, T_Scon_DGRG, 383.5, hit, 2, 0
361, 3, T_Scon, T_Scon_URLR, 358.6, hit, 1, 0
362, 3, T_Sinc, T_Sinc_UGRG, 914.1, hit, 2, 2
363, 3, T_Sinc, T_Sinc_DRLR, 417.5, hit, 1, 0
364, 3, T_Scon, T_Scon_DGRG, 356.9, hit, 2, 0
365, 3, T_Sinc, T_Sinc_UGRG, 360.4, hit, 2, 0
366, 3, T_Sinc, T_Sinc_UGRG, 327.8, hit, 2, 0
367, 3, T_Sinc, T_Sinc_UGRG, 411.2, hit, 2, 0
368, 3, T_Sinc, T_Sinc_DRLR, 382.7, hit, 1, 0
369, 3, T_Sinc, T_Sinc_DRLR, 386.1, hit, 1, 0
370, 3, T_Scon, T_Scon_DGRG, 337.6, hit, 2, 0
371, 3, T_Scon, T_Scon_URLR, 373.0, hit, 1, 0
372, 3, T_Scon, T_Scon_URLR, 320.4, hit, 1, 0
373, 3, T_Sinc, T_Sinc_UGRG, 359.9, hit, 2, 0
374, 3, T_Scon, T_Scon_URLR, 307.4, hit, 1, 0
375, 3, T_Scon, T_Scon_URLR, 270.7, hit, 1, 0
376, 3, T_Sinc, T_Sinc_DRLR, 298.2, hit, 1, 0
377, 3, T_Sinc, T_Sinc_DRLR, 325.6, hit, 1, 0
378, 3, T_Scon, T_Scon_DGRG, 389.1, hit, 2, 0
379, 3, T_Scon, T_Scon_DGRG, 292.5, hit, 2, 0
380, 3, T_Sinc, T_Sinc_DRLR, 391.9, hit, 1, 0
381, 3, T_Scon, T_Scon_DGRG, 319.4, hit, 2, 0
382, 3, T_Sinc, T_Sinc_DRLR, 370.8, hit, 1, 0
383, 3, T_Sinc, T_Sinc_UGRG, 374.2, hit, 2, 0
384, 3, T_Scon, T_Scon_DGRG, 293.7, hit, 2, 0
385, 3, T_Sinc, T_Sinc_DRLR, 385.0, hit, 1, 0
386, 3, T_Scon, T_Scon_URLR, 308.5, hit, 1, 0
387, 3, T_Scon, T_Scon_URLR, 324.0, hit, 1, 0
388, 3, T_Scon, T_Scon_DGRG, 423.4, hit, 2, 0
389, 3, T_Sinc, T_Sinc_DRLR, 326.8, hit, 1, 0
390, 3, T_Scon, T_Scon_URLR, 330.3, hit, 1, 0
391, 3, T_Scon, T_Scon_DGRG, 381.7, hit, 2, 0
392, 3, T_Scon, T_Scon_DGRG, 357.2, hit, 2, 0
393, 3, T_Scon, T_Scon_DGRG, 432.6, hit, 2, 0
394, 3, T_Sinc, T_Sinc_DRLR, 412.0, hit, 1, 0
395, 3, T_Scon, T_Scon_URLR, 287.5, hit, 1, 0
396, 3, T_Scon, T_Scon_URLR, 362.9, hit, 1, 0
397, 3, T_Scon, T_Scon_URLR, 442.1, hit, 1, 0
398, 3, T_Scon, T_Scon_DGRG, 409.4, hit, 2, 0
399, 3, T_Scon, T_Scon_DGRG, 436.9, hit, 2, 0
400, 3, T_Scon, T_Scon_URLR, 328.4, hit, 1, 0
401, 3, T_Sinc, T_Sinc_UGRG, 407.8, hit, 2, 0
402, 3, T_Scon, T_Scon_URLR, 411.2, hit, 1, 0
403, 3, T_Sinc, T_Sinc_UGRG, 358.6, hit, 2, 0
404, 3, T_Sinc, T_Sinc_DRLR, 366.1, hit, 1, 0
405, 3, T_Scon, T_Scon_URLR, 369.6, hit, 1, 0
406, 3, T_Scon, T_Scon_DGRG, 348.9, hit, 2, 0
407, 3, T_Sinc, T_Sinc_UGRG, 352.4, hit, 2, 0
408, 3, T_Scon, T_Scon_URLR, 391.9, hit, 1, 0
409, 3, T_Scon, T_Scon_URLR, 379.3, hit, 1, 0
410, 3, T_Scon, T_Scon_DGRG, 374.7, hit, 2, 0
411, 3, T_Scon, T_Scon_URLR, 354.2, hit, 1, 0
412, 3, T_Scon, T_Scon_URLR, 389.6, hit, 1, 0
413, 3, T_Scon, T_Scon_URLR, 381.1, hit, 1, 0
414, 3, T_Sinc, T_Sinc_UGRG, 368.4, hit, 2, 0
415, 3, T_Scon, T_Scon_DGRG, 467.9, hit, 2, 0
416, 3, T_Scon, T_Scon_URLR, 363.4, hit, 1, 0
417, 3, T_Sinc, T_Sinc_UGRG, 286.8, incorrect, 1, 1
418, 3, T_Scon, T_Scon_URLR, 386.2, hit, 1, 0
419, 3, T_Scon, T_Scon_DGRG, 421.7, hit, 2, 0
420, 3, T_Scon, T_Scon_DGRG, 381.2, hit, 2, 0
421, 3, T_Scon, T_Scon_DGRG, 264.6, hit, 2, 0
422, 3, T_Sinc, T_Sinc_DRLR, 372.0, hit, 1, 0
423, 3, T_Sinc, T_Sinc_DRLR, 407.4, hit, 1, 0
424, 3, T_Scon, T_Scon_DGRG, 410.9, hit, 2, 0
425, 3, T_Sinc, T_Sinc_DRLR, 254.3, hit, 1, 0
426, 3, T_Scon, T_Scon_DGRG, 297.7, hit, 2, 0
427, 3, T_Sinc, T_Sinc_DRLR, 297.2, hit, 1, 0
428, 3, T_Sinc, T_Sinc_UGRG, 320.6, incorrect, 1, 1
429, 3, T_Sinc, T_Sinc_DRLR, 412.0, hit, 1, 0
430, 3, T_Scon, T_Scon_DGRG, 407.5, hit, 2, 0
431, 3, T_Sinc, T_Sinc_UGRG, 330.9, hit, 2, 0
432, 3, T_Scon, T_Scon_DGRG, 302.3, hit, 2, 0
433, 4, T_Sinc, T_Sinc_DRLR, 383.2, hit, 1, 0
434, 4, T_Scon, T_Scon_DGRG, 426.7, hit, 2, 0
435, 4, T_Sinc, T_Sinc_DRLR, 398.1, hit, 1, 0
436, 4, T_Sinc, T_Sinc_UGRG, 361.5, hit, 2, 0
437, 4, T_Sinc, T_Sinc_UGRG, 297.0, hit, 2, 0
438, 4, T_Scon, T_Scon_DGRG, 372.4, hit, 2, 0
439, 4, T_Scon, T_Scon_URLR, 343.9, hit, 1, 0
440, 4, T_Scon, T_Scon_URLR, 307.3, hit, 1, 0
441, 4, T_Sinc, T_Sinc_DRLR, 298.7, hit, 1, 0
442, 4, T_Scon, T_Scon_DGRG, 426.2, hit, 2, 0
443, 4, T_Scon, T_Scon_URLR, 365.6, hit, 1, 0
444, 4, T_Sinc, T_Sinc_DRLR, 409.0, hit, 1, 0
445, 4, T_Scon, T_Scon_URLR, 596.5, hit, 1, 2
446, 4, T_Scon, T_Scon_URLR, 371.9, hit, 1, 0
447, 4, T_Scon, T_Scon_DGRG, 439.3, hit, 2, 0
448, 4, T_Sinc, T_Sinc_UGRG, 370.8, hit, 2, 0
449, 4, T_Scon, T_Scon_DGRG, 338.2, hit, 2, 0
450, 4, T_Sinc, T_Sinc_DRLR, 301.6, hit, 1, 0
451, 4, T_Sinc, T_Sinc_DRLR, 293.1, hit, 1, 0
452, 4, T_Scon, T_Scon_DGRG, 316.5, hit, 2, 0
453, 4, T_Scon, T_Scon_URLR, 360.0, hit, 1, 0
454, 4, T_Scon, T_Scon_DGRG, 391.4, hit, 2, 0
455, 4, T_Sinc, T_Sinc_UGRG, 306.8, hit, 2, 0
456, 4, T_Scon, T_Scon_DGRG, 290.3, hit, 2, 0
457, 4, T_Sinc, T_Sinc_UGRG, 309.8, hit, 2, 0
458, 4, T_Scon, T_Scon_URLR, 385.1, hit, 1, 0
459, 4, T_Sinc, T_Sinc_DRLR, 292.6, hit, 1, 0
460, 4, T_Sinc, T_Sinc_DRLR, 296.1, hit, 1, 0
461, 4, T_Scon, T_Scon_DGRG, 427.4, hit, 2, 0
462, 4, T_Sinc, T_Sinc_DRLR, 370.9, hit, 1, 0
463, 4, T_Scon, T_Scon_DGRG, 350.3, hit, 2, 0
464, 4, T_Sinc, T_Sinc_DRLR, 337.8, hit, 1, 0
465, 4, T_Sinc, T_Sinc_UGRG, 365.3, hit, 2, 0
466, 4, T_Sinc, T_Sinc_DRLR, 388.6, hit, 1, 0
467, 4, T_Sinc, T_Sinc_UGRG, 392.1, hit, 2, 0
468, 4, T_Scon, T_Scon_URLR, 379.6, hit, 1, 0
469, 4, T_Sinc, T_Sinc_DRLR, 346.7, hit, 1, 0
470, 4, T_Scon, T_Scon_DGRG, 354.1, hit, 2, 0
471, 4, T_Scon, T_Scon_DGRG, 329.6, hit, 2, 0
472, 4, T_Scon, T_Scon_URLR, 317.0, hit, 1, 0
473, 4, T_Sinc, T_Sinc_UGRG, 376.4, hit, 2, 0
474, 4, T_Sinc, T_Sinc_DRLR, 363.9, hit, 1, 0
475, 4, T_Scon, T_Scon_DGRG, 383.3, hit, 2, 0
476, 4, T_Sinc, T_Sinc_DRLR, 370.8, hit, 1, 0
477, 4, T_Scon, T_Scon_URLR, 374.2, hit, 1, 0
478, 4, T_Sinc, T_Sinc_DRLR, 457.6, hit, 1, 0
479, 4, T_Scon, T_Scon_URLR, 445.1, hit, 1, 0
480, 4, T_Scon, T_Scon_URLR, 296.6, hit, 1, 0
481, 4, T_Sinc, T_Sinc_DRLR, 307.9, hit, 1, 0
482, 4, T_Sinc, T_Sinc_DRLR, 291.4, hit, 1, 0
483, 4, T_Sinc, T_Sinc_UGRG, 374.9, hit, 2, 0
484, 4, T_Scon, T_Scon_DGRG, 326.3, hit, 2, 0
485, 4, T_Sinc, T_Sinc_UGRG, 381.7, hit, 2, 0
486, 4, T_Sinc, T_Sinc_UGRG, 305.1, hit, 2, 0
487, 4, T_Scon, T_Scon_URLR, 332.6, hit, 1, 0
488, 4, T_Sinc, T_Sinc_DRLR, 256.1, hit, 1, 0
489, 4, T_Scon, T_Scon_DGRG, 387.4, hit, 2, 0
490, 4, T_Sinc, T_Sinc_DRLR, 414.9, hit, 1, 0
491, 4, T_Sinc, T_Sinc_DRLR, 322.4, hit, 1, 0
492, 4, T_Scon, T_Scon_URLR, 309.7, hit, 1, 0
493, 4, T_Sinc, T_Sinc_DRLR, 313.2, hit, 1, 0
494, 4, T_Sinc, T_Sinc_DRLR, 360.7, hit, 1, 0
495, 4, T_Sinc, T_Sinc_DRLR, 288.1, hit, 1, 0
496, 4, T_Scon, T_Scon_DGRG, 343.5, hit, 2, 0
497, 4, T_Scon, T_Scon_URLR, 334.9, hit, 1, 0
498, 4, T_Scon, T_Scon_URLR, 314.4, hit, 1, 0
499, 4, T_Scon, T_Scon_URLR, 269.9, hit, 1, 0
500, 4, T_Sinc, T_Sinc_UGRG, 433.2, hit, 2, 0
501, 4, T_Scon, T_Scon_URLR, 700.7, hit, 1, 2
502, 4, T_Sinc, T_Sinc_UGRG, 368.2, hit, 2, 0
503, 4, T_Scon, T_Scon_DGRG, 395.5, incorrect, 1, 1
504, 4, T_Sinc, T_Sinc_UGRG, 455.0, hit, 2, 0
505, 4, T_Scon, T_Scon_URLR, 354.2, hit, 1, 0
506, 4, T_Sinc, T_Sinc_UGRG, 377.6, hit, 2, 0
507, 4, T_Sinc, T_Sinc_UGRG, 309.0, hit, 2, 0
508, 4, T_Sinc, T_Sinc_UGRG, 280.5, hit, 2, 0
509, 4, T_Scon, T_Scon_URLR, 287.9, hit, 1, 0
510, 4, T_Sinc, T_Sinc_DRLR, 379.3, hit, 1, 0
511, 4, T_Scon, T_Scon_URLR, 446.8, hit, 1, 0
512, 4, T_Sinc, T_Sinc_UGRG, 382.3, hit, 2, 0
513, 4, T_Scon, T_Scon_DGRG, 337.6, hit, 2, 0
514, 4, T_Sinc, T_Sinc_UGRG, 265.1, hit, 2, 0
515, 4, T_Sinc, T_Sinc_DRLR, 344.5, hit, 1, 0
516, 4, T_Sinc, T_Sinc_DRLR, 264.0, hit, 1, 0
517, 4, T_Scon, T_Scon_DGRG, 427.4, hit, 2, 0
518, 4, T_Sinc, T_Sinc_UGRG, 338.8, hit, 2, 0
519, 4, T_Scon, T_Scon_URLR, 470.3, hit, 1, 0
520, 4, T_Sinc, T_Sinc_DRLR, 553.8, hit, 1, 0
521, 4, T_Sinc, T_Sinc_UGRG, 393.1, hit, 2, 0
522, 4, T_Scon, T_Scon_DGRG, 688.6, hit, 2, 2
523, 4, T_Scon, T_Scon_URLR, 364.1, hit, 1, 0
524, 4, T_Scon, T_Scon_URLR, 623.4, hit, 1, 2
525, 4, T_Scon, T_Scon_DGRG, 498.9, hit, 2, 0
526, 4, T_Sinc, T_Sinc_UGRG, 278.4, hit, 2, 0
527, 4, T_Sinc, T_Sinc_UGRG, 325.8, hit, 2, 0
528, 4, T_Scon, T_Scon_URLR, 297.2, hit, 1, 0
529, 4, T_Scon, T_Scon_DGRG, 316.6, incorrect, 1, 1
530, 4, T_Sinc, T_Sinc_UGRG, 464.1, hit, 2, 0
531, 4, T_Scon, T_Scon_URLR, 375.5, hit, 1, 0
532, 4, T_Scon, T_Scon_URLR, 386.9, hit, 1, 0
533, 4, T_Scon, T_Scon_DGRG, 390.4, hit, 2, 0
534, 4, T_Sinc, T_Sinc_DRLR, 397.8, hit, 1, 0
535, 4, T_Sinc, T_Sinc_DRLR, 337.2, hit, 1, 0
536, 4, T_Sinc, T_Sinc_UGRG, 348.7, hit, 2, 0
537, 4, T_Scon, T_Scon_DGRG, 376.2, hit, 2, 0
538, 4, T_Scon, T_Scon_URLR, 379.5, hit, 1, 0
539, 4, T_Sinc, T_Sinc_DRLR, 387.0, hit, 1, 0
540, 4, T_Scon, T_Scon_URLR, 390.5, hit, 1, 0
541, 4, T_Scon, T_Scon_DGRG, 401.5, hit, 2, 0
542, 4, T_Sinc, T_Sinc_UGRG, 413.0, hit, 2, 0
543, 4, T_Sinc, T_Sinc_UGRG, 364.5, hit, 2, 0
544, 4, T_Sinc, T_Sinc_DRLR, 335.9, hit, 1, 0
545, 4, T_Scon, T_Scon_DGRG, 411.3, hit, 2, 0
546, 4, T_Scon, T_Scon_URLR, 374.8, hit, 1, 0
547, 4, T_Scon, T_Scon_DGRG, 446.2, hit, 2, 0
548, 4, T_Scon, T_Scon_DGRG, 465.6, hit, 2, 0
549, 4, T_Sinc, T_Sinc_DRLR, 341.1, hit, 1, 0
550, 4, T_Sinc, T_Sinc_UGRG, 428.5, hit, 2, 0
551, 4, T_Sinc, T_Sinc_UGRG, 288.0, hit, 2, 0
552, 4, T_Sinc, T_Sinc_UGRG, 307.4, hit, 2, 0
553, 4, T_Scon, T_Scon_URLR, 450.8, hit, 1, 0
554, 4, T_Scon, T_Scon_DGRG, 382.3, hit, 2, 0
555, 4, T_Sinc, T_Sinc_UGRG, 397.7, hit, 2, 0
556, 4, T_Scon, T_Scon_URLR, 373.1, hit, 1, 0
557, 4, T_Scon, T_Scon_URLR, 296.6, hit, 1, 0
558, 4, T_Scon, T_Scon_DGRG, 432.0, hit, 2, 0
559, 4, T_Sinc, T_Sinc_UGRG, 331.4, hit, 2, 0
560, 4, T_Scon, T_Scon_URLR, 346.9, hit, 1, 0
561, 4, T_Scon, T_Scon_URLR, 310.3, hit, 1, 0
562, 4, T_Scon, T_Scon_DGRG, 421.7, hit, 2, 0
563, 4, T_Sinc, T_Sinc_UGRG, 289.2, hit, 2, 0
564, 4, T_Sinc, T_Sinc_DRLR, 548.6, hit, 1, 0
565, 4, T_Scon, T_Scon_DGRG, 392.1, hit, 2, 0
566, 4, T_Sinc, T_Sinc_UGRG, 315.5, hit, 2, 0
567, 4, T_Scon, T_Scon_DGRG, 358.9, hit, 2, 0
568, 4, T_Scon, T_Scon_DGRG, 346.4, hit, 2, 0
569, 4, T_Scon, T_Scon_DGRG, 381.8, hit, 2, 0
570, 4, T_Sinc, T_Sinc_UGRG, 381.2, hit, 2, 0
571, 4, T_Sinc, T_Sinc_DRLR, 364.7, hit, 1, 0
572, 4, T_Sinc, T_Sinc_DRLR, 380.1, hit, 1, 0
573, 4, T_Scon, T_Scon_DGRG, 419.5, hit, 2, 0
574, 4, T_Scon, T_Scon_URLR, 367.0, hit, 1, 0
575, 4, T_Sinc, T_Sinc_UGRG, 410.5, hit, 2, 0
576, 4, T_Sinc, T_Sinc_DRLR, 485.8, hit, 1, 0
577, 5, T_Scon, T_Scon_URLR, 321.1, hit, 1, 0
578, 5, T_Scon, T_Scon_URLR, 308.4, hit, 1, 0
579, 5, T_Scon, T_Scon_DGRG, 367.9, hit, 2, 0
580, 5, T_Sinc, T_Sinc_UGRG, 323.3, hit, 2, 0
581, 5, T_Sinc, T_Sinc_DRLR, 334.7, hit, 1, 0
582, 5, T_Sinc, T_Sinc_DRLR, 354.2, hit, 1, 0
583, 5, T_Sinc, T_Sinc_UGRG, 329.6, hit, 2, 0
584, 5, T_Sinc, T_Sinc_UGRG, 277.1, hit, 2, 0
585, 5, T_Sinc, T_Sinc_UGRG, 300.5, hit, 2, 0
586, 5, T_Sinc, T_Sinc_DRLR, 331.9, hit, 1, 0
587, 5, T_Scon, T_Scon_DGRG, 379.4, hit, 2, 0
588, 5, T_Sinc, T_Sinc_DRLR, 374.8, hit, 1, 0
589, 5, T_Sinc, T_Sinc_DRLR, 338.2, incorrect, 2, 1
590, 5, T_Scon, T_Scon_URLR, 377.7, hit, 1, 0
591, 5, T_Scon, T_Scon_URLR, 277.2, hit, 1, 0
592, 5, T_Scon, T_Scon_URLR, 252.5, hit, 1, 0
593, 5, T_Sinc, T_Sinc_UGRG, 684.0, hit, 2, 2
594, 5, T_Scon, T_Scon_DGRG, 399.5, hit, 2, 0
595, 5, T_Sinc, T_Sinc_UGRG, 350.9, hit, 2, 0
596, 5, T_Sinc, T_Sinc_DRLR, 358.3, hit, 1, 0
597, 5, T_Sinc, T_Sinc_UGRG, 349.7, hit, 2, 0
598, 5, T_Sinc, T_Sinc_DRLR, 357.2, hit, 1, 0
599, 5, T_Scon, T_Scon_URLR, 316.7, hit, 1, 0
600, 5, T_Sinc, T_Sinc_UGRG, 420.0, hit, 2, 0
601, 5, T_Sinc, T_Sinc_UGRG, 367.5, hit, 2, 0
602, 5, T_Scon, T_Scon_DGRG, 395.0, hit, 2, 0
603, 5, T_Scon, T_Scon_URLR, 370.3, hit, 1, 0
604, 5, T_Scon, T_Scon_URLR, 381.8, hit, 1, 0
605, 5, T_Sinc, T_Sinc_UGRG, 433.3, hit, 2, 0
606, 5, T_Scon, T_Scon_URLR, 588.6, hit, 1, 2
607, 5, T_Sinc, T_Sinc_UGRG, 436.1, hit, 2, 0
608, 5, T_Sinc, T_Sinc_UGRG, 383.6, hit, 2, 0
609, 5, T_Sinc, T_Sinc_UGRG, 342.9, hit, 2, 0
610, 5, T_Sinc, T_Sinc_UGRG, 290.4, hit, 2, 0
611, 5, T_Scon, T_Scon_DGRG, 357.8, hit, 2, 0
612, 5, T_Scon, T_Scon_DGRG, 353.3, hit, 2, 0
613, 5, T_Scon, T_Scon_URLR, 356.4, hit, 1, 0
614, 5, T_Sinc, T_Sinc_UGRG, 463.9, hit, 2, 0
615, 5, T_Sinc, T_Sinc_UGRG, 307.3, hit, 2, 0
616, 5, T_Scon, T_Scon_DGRG, 558.7, hit, 2, 0
617, 5, T_Scon, T_Scon_URLR, 362.2, hit, 1, 0
618, 5, T_Scon, T_Scon_DGRG, 401.6, hit, 2, 0
619, 5, T_Sinc, T_Sinc_DRLR, 597.0, hit, 1, 0
620, 5, T_Sinc, T_Sinc_UGRG, 484.5, hit, 2, 0
621, 5, T_Scon, T_Scon_URLR, 399.9, hit, 1, 0
622, 5, T_Sinc, T_Sinc_DRLR, 327.4, hit, 1, 0
623, 5, T_Scon, T_Scon_DGRG, 426.8, hit, 2, 0
624, 5, T_Scon, T_Scon_URLR, 358.2, hit, 1, 0
625, 5, T_Sinc, T_Sinc_DRLR, 309.7, hit, 1, 0
626, 5, T_Scon, T_Scon_URLR, 305.1, hit, 1, 0
627, 5, T_Scon, T_Scon_DGRG, 444.5, hit, 2, 0
628, 5, T_Scon, T_Scon_URLR, 376.0, hit, 1, 0
629, 5, T_Scon, T_Scon_DGRG, 435.4, hit, 2, 0
630, 5, T_Scon, T_Scon_URLR, 386.9, hit, 1, 0
631, 5, T_Sinc, T_Sinc_DRLR, 282.3, hit, 1, 0
632, 5, T_Sinc, T_Sinc_DRLR, 365.7, hit, 1, 0
633, 5, T_Sinc, T_Sinc_DRLR, 289.2, hit, 1, 0
634, 5, T_Scon, T_Scon_DGRG, 380.6, hit, 2, 0
635, 5, T_Scon, T_Scon_DGRG, 344.0, hit, 2, 0
636, 5, T_Scon, T_Scon_DGRG, 363.5, hit, 2, 0
637, 5, T_Sinc, T_Sinc_DRLR, 359.0, hit, 1, 0
638, 5, T_Scon, T_Scon_DGRG, 450.3, hit, 2, 0
639, 5, T_Scon, T_Scon_URLR, 389.8, hit, 1, 0
640, 5, T_Sinc, T_Sinc_DRLR, 285.2, hit, 1, 0
641, 5, T_Scon, T_Scon_DGRG, 404.7, hit, 2, 0
642, 5, T_Sinc, T_Sinc_UGRG, 372.1, hit, 2, 0
643, 5, T_Scon, T_Scon_DGRG, 431.5, hit, 2, 0
644, 5, T_Scon, T_Scon_DGRG, 379.0, hit, 2, 0
645, 5, T_Sinc, T_Sinc_UGRG, 350.5, hit, 2, 0
646, 5, T_Scon, T_Scon_URLR, 297.8, hit, 1, 0
647, 5, T_Scon, T_Scon_URLR, 313.3, hit, 1, 0
648, 5, T_Sinc, T_Sinc_DRLR, 284.8, hit, 1, 0
649, 5, T_Scon, T_Scon_URLR, 331.9, hit, 1, 0
650, 5, T_Sinc, T_Sinc_UGRG, 359.3, hit, 2, 0
651, 5, T_Scon, T_Scon_URLR, 354.7, hit, 1, 0
652, 5, T_Sinc, T_Sinc_DRLR, 310.2, hit, 1, 0
653, 5, T_Sinc, T_Sinc_UGRG, 385.6, hit, 2, 0
654, 5, T_Sinc, T_Sinc_DRLR, 381.1, hit, 1, 0
655, 5, T_Scon, T_Scon_DGRG, 432.4, hit, 2, 0
656, 5, T_Sinc, T_Sinc_UGRG, 355.9, hit, 2, 0
657, 5, T_Sinc, T_Sinc_DRLR, 355.4, hit, 1, 0
658, 5, T_Sinc, T_Sinc_DRLR, 318.8, hit, 1, 0
659, 5, T_Sinc, T_Sinc_UGRG, 370.2, hit, 2, 0
660, 5, T_Sinc, T_Sinc_UGRG, 285.7, hit, 2, 0
661, 5, T_Sinc, T_Sinc_UGRG, 341.1, hit, 2, 0
662, 5, T_Sinc, T_Sinc_UGRG, 360.6, hit, 2, 0
663, 5, T_Sinc, T_Sinc_DRLR, 396.1, hit, 1, 0
664, 5, T_Sinc, T_Sinc_DRLR, 351.4, hit, 1, 0
665, 5, T_Sinc, T_Sinc_DRLR, 314.9, hit, 1, 0
666, 5, T_Scon, T_Scon_URLR, 490.3, hit, 1, 0
667, 5, T_Sinc, T_Sinc_UGRG, 373.7, hit, 2, 0
668, 5, T_Sinc, T_Sinc_DRLR, 361.2, hit, 1, 0
669, 5, T_Scon, T_Scon_URLR, 300.6, hit, 1, 0
670, 5, T_Scon, T_Scon_DGRG, 380.1, hit, 2, 0
671, 5, T_Sinc, T_Sinc_UGRG, 375.4, hit, 2, 0
672, 5, T_Sinc, T_Sinc_DRLR, 362.9, hit, 1, 0
673, 5, T_Sinc, T_Sinc_UGRG, 398.4, hit, 2, 0
674, 5, T_Sinc, T_Sinc_DRLR, 333.9, hit, 1, 0
675, 5, T_Scon, T_Scon_URLR, 329.2, hit, 1, 0
676, 5, T_Sinc, T_Sinc_UGRG, 420.7, hit, 2, 0
677, 5, T_Scon, T_Scon_DGRG, 368.2, hit, 2, 0
678, 5, T_Scon, T_Scon_DGRG, 415.5, hit, 2, 0
679, 5, T_Scon, T_Scon_DGRG, 347.0, hit, 2, 0
680, 5, T_Sinc, T_Sinc_DRLR, 374.4, hit, 1, 0
681, 5, T_Scon, T_Scon_DGRG, 409.8, hit, 2, 0
682, 5, T_Sinc, T_Sinc_UGRG, 385.3, hit, 2, 0
683, 5, T_Scon, T_Scon_DGRG, 388.7, hit, 2, 0
684, 5, T_Sinc, T_Sinc_DRLR, 380.2, hit, 1, 0
685, 5, T_Scon, T_Scon_DGRG, 315.3, incorrect, 1, 1
686, 5, T_Scon, T_Scon_URLR, 406.8, hit, 1, 0
687, 5, T_Scon, T_Scon_DGRG, 410.1, hit, 2, 0
688, 5, T_Sinc, T_Sinc_UGRG, 397.6, hit, 2, 0
689, 5, T_Scon, T_Scon_DGRG, 361.1, hit, 2, 0
690, 5, T_Scon, T_Scon_URLR, 368.5, hit, 1, 0
691, 5, T_Scon, T_Scon_DGRG, 399.9, hit, 2, 0
692, 5, T_Sinc, T_Sinc_DRLR, 339.4, hit, 1, 0
693, 5, T_Sinc, T_Sinc_DRLR, 358.8, hit, 1, 0
694, 5, T_Scon, T_Scon_DGRG, 434.3, hit, 2, 0
695, 5, T_Sinc, T_Sinc_DRLR, 381.7, hit, 1, 0
696, 5, T_Scon, T_Scon_URLR, 485.1, hit, 1, 0
697, 5, T_Scon, T_Scon_DGRG, 440.6, hit, 2, 0
698, 5, T_Scon, T_Scon_URLR, 404.0, hit, 1, 0
699, 5, T_Sinc, T_Sinc_UGRG, 363.4, hit, 2, 0
700, 5, T_Scon, T_Scon_DGRG, 458.9, hit, 2, 0
701, 5, T_Sinc, T_Sinc_UGRG, 470.3, hit, 2, 0
702, 5, T_Scon, T_Scon_URLR, 409.8, hit, 1, 0
703, 5, T_Scon, T_Scon_URLR, 309.2, hit, 1, 0
704, 5, T_Sinc, T_Sinc_DRLR, 356.6, hit, 1, 0
705, 5, T_Sinc, T_Sinc_DRLR, 328.1, hit, 1, 0
706, 5, T_Scon, T_Scon_DGRG, 403.5, hit, 2, 0
707, 5, T_Sinc, T_Sinc_DRLR, 446.9, hit, 1, 0
708, 5, T_Scon, T_Scon_DGRG, 406.4, hit, 2, 0
709, 5, T_Scon, T_Scon_DGRG, 297.9, hit, 2, 0
710, 5, T_Sinc, T_Sinc_DRLR, 369.2, hit, 1, 0
711, 5, T_Scon, T_Scon_DGRG, 364.7, incorrect, 1, 1
712, 5, T_Sinc, T_Sinc_DRLR, 456.1, hit, 1, 0
713, 5, T_Sinc, T_Sinc_UGRG, 343.5, hit, 2, 0
714, 5, T_Scon, T_Scon_URLR, 379.0, hit, 1, 0
715, 5, T_Scon, T_Scon_URLR, 402.4, hit, 1, 0
716, 5, T_Scon, T_Scon_URLR, 389.9, hit, 1, 0
717, 5, T_Scon, T_Scon_URLR, 317.3, hit, 1, 0
718, 5, T_Scon, T_Scon_URLR, 332.7, hit, 1, 0
719, 5, T_Sinc, T_Sinc_UGRG, 516.2, hit, 2, 0
720, 5, T_Scon, T_Scon_URLR, 415.7, hit, 1, 0
721, 6, T_Scon, T_Scon_DGRG, 392.7, hit, 2, 0
722, 6, T_Sinc, T_Sinc_UGRG, 324.1, hit, 2, 0
723, 6, T_Sinc, T_Sinc_UGRG, 303.6, hit, 2, 0
724, 6, T_Scon, T_Scon_DGRG, 287.0, hit, 2, 0
725, 6, T_Scon, T_Scon_URLR, 354.4, hit, 1, 0
726, 6, T_Scon, T_Scon_URLR, 241.9, hit, 1, 0
727, 6, T_Scon, T_Scon_DGRG, 353.3, hit, 2, 0
728, 6, T_Scon, T_Scon_URLR, 364.7, hit, 1, 0
729, 6, T_Sinc, T_Sinc_DRLR, 484.2, hit, 1, 0
730, 6, T_Scon, T_Scon_DGRG, 435.6, hit, 2, 0
731, 6, T_Sinc, T_Sinc_DRLR, 391.0, hit, 1, 0
732, 6, T_Scon, T_Scon_URLR, 330.5, hit, 1, 0
733, 6, T_Sinc, T_Sinc_DRLR, 345.9, hit, 1, 0
734, 6, T_Sinc, T_Sinc_DRLR, 341.3, hit, 1, 0
735, 6, T_Scon, T_Scon_DGRG, 380.8, hit, 2, 0
736, 6, T_Sinc, T_Sinc_DRLR, 360.2, hit, 1, 0
737, 6, T_Sinc, T_Sinc_UGRG, 463.7, hit, 2, 0
738, 6, T_Sinc, T_Sinc_UGRG, 343.1, hit, 2, 0
739, 6, T_Scon, T_Scon_URLR, 410.5, hit, 1, 0
740, 6, T_Sinc, T_Sinc_DRLR, 414.0, hit, 1, 0
741, 6, T_Scon, T_Scon_URLR, 397.5, hit, 1, 0
742, 6, T_Scon, T_Scon_DGRG, 388.8, hit, 2, 0
743, 6, T_Scon, T_Scon_DGRG, 384.3, hit, 2, 0
744, 6, T_Sinc, T_Sinc_UGRG, 411.8, hit, 2, 0
745, 6, T_Sinc, T_Sinc_UGRG, 291.1, hit, 2, 0
746, 6, T_Sinc, T_Sinc_DRLR, 350.6, hit, 1, 0
747, 6, T_Scon, T_Scon_URLR, 250.0, hit, 1, 0
748, 6, T_Sinc, T_Sinc_UGRG, 405.4, hit, 2, 0
749, 6, T_Scon, T_Scon_DGRG, 352.9, hit, 2, 0
750, 6, T_Sinc, T_Sinc_UGRG, 268.3, hit, 2, 0
751, 6, T_Sinc, T_Sinc_DRLR, 327.8, hit, 1, 0
752, 6, T_Scon, T_Scon_URLR, 283.2, hit, 1, 0
753, 6, T_Scon, T_Scon_URLR, 302.6, hit, 1, 0
754, 6, T_Sinc, T_Sinc_UGRG, 366.1, hit, 2, 0
755, 6, T_Sinc, T_Sinc_UGRG, 281.6, hit, 2, 0
756, 6, T_Scon, T_Scon_URLR, 372.9, hit, 1, 0
757, 6, T_Sinc, T_Sinc_DRLR, 384.1, hit, 1, 0
758, 6, T_Scon, T_Scon_DGRG, 347.6, hit, 2, 0
759, 6, T_Scon, T_Scon_URLR, 382.9, hit, 1, 0
760, 6, T_Sinc, T_Sinc_UGRG, 386.4, hit, 2, 0
761, 6, T_Scon, T_Scon_DGRG, 357.9, hit, 2, 0
762, 6, T_Scon, T_Scon_DGRG, 365.2, hit, 2, 0
763, 6, T_Scon, T_Scon_DGRG, 316.7, hit, 2, 0
764, 6, T_Scon, T_Scon_URLR, 348.2, hit, 1, 0
765, 6, T_Sinc, T_Sinc_DRLR, 375.5, hit, 1, 0
766, 6, T_Sinc, T_Sinc_UGRG, 395.0, hit, 2, 0
767, 6, T_Sinc, T_Sinc_UGRG, 558.4, hit, 2, 0
768, 6, T_Scon, T_Scon_DGRG, 321.9, hit, 2, 0
769, 6, T_Sinc, T_Sinc_UGRG, 329.3, hit, 2, 0
770, 6, T_Sinc, T_Sinc_DRLR, 448.8, hit, 1, 0
771, 6, T_Scon, T_Scon_URLR, 332.2, hit, 1, 0
772, 6, T_Sinc, T_Sinc_UGRG, 387.7, hit, 2, 0
773, 6, T_Scon, T_Scon_DGRG, 503.1, hit, 2, 0
774, 6, T_Scon, T_Scon_URLR, 306.5, hit, 1, 0
775, 6, T_Scon, T_Scon_URLR, 390.0, hit, 1, 0
776, 6, T_Scon, T_Scon_URLR, 337.4, hit, 1, 0
777, 6, T_Sinc, T_Sinc_UGRG, 408.8, hit, 2, 0
778, 6, T_Sinc, T_Sinc_UGRG, 516.2, hit, 2, 0
779, 6, T_Sinc, T_Sinc_DRLR, 427.7, hit, 1, 0
780, 6, T_Sinc, T_Sinc_DRLR, 351.2, hit, 1, 0
781, 6, T_Sinc, T_Sinc_UGRG, 402.6, hit, 2, 0
782, 6, T_Scon, T_Scon_URLR, 374.0, hit, 1, 0
783, 6, T_Sinc, T_Sinc_UGRG, 445.5, hit, 2, 0
784, 6, T_Sinc, T_Sinc_UGRG, 369.0, hit, 2, 0
785, 6, T_Sinc, T_Sinc_UGRG, 428.3, hit, 2, 0
786, 6, T_Scon, T_Scon_DGRG, 335.8, hit, 2, 0
787, 6, T_Sinc, T_Sinc_DRLR, 371.2, hit, 1, 0
788, 6, T_Sinc, T_Sinc_DRLR, 366.7, hit, 1, 0
789, 6, T_Scon, T_Scon_DGRG, 426.1, hit, 2, 0
790, 6, T_Scon, T_Scon_URLR, 461.5, hit, 1, 0
791, 6, T_Sinc, T_Sinc_DRLR, 321.0, hit, 1, 0
792, 6, T_Scon, T_Scon_URLR, 324.4, hit, 1, 0
793, 6, T_Scon, T_Scon_URLR, 435.6, hit, 1, 0
794, 6, T_Sinc, T_Sinc_UGRG, 451.0, hit, 2, 0
795, 6, T_Sinc, T_Sinc_DRLR, 434.4, hit, 1, 0
796, 6, T_Scon, T_Scon_DGRG, 413.9, hit, 2, 0
797, 6, T_Scon, T_Scon_DGRG, 361.3, hit, 2, 0
798, 6, T_Sinc, T_Sinc_UGRG, 364.7, hit, 2, 0
799, 6, T_Sinc, T_Sinc_DRLR, 376.2, hit, 1, 0
800, 6, T_Scon, T_Scon_DGRG, 459.6, hit, 2, 0
801, 6, T_Scon, T_Scon_URLR, 383.1, hit, 1, 0
802, 6, T_Sinc, T_Sinc_DRLR, 358.4, hit, 1, 0
803, 6, T_Sinc, T_Sinc_DRLR, 389.9, hit, 1, 0
804, 6, T_Sinc, T_Sinc_UGRG, 545.3, hit, 2, 0
805, 6, T_Scon, T_Scon_URLR, 400.8, hit, 1, 0
806, 6, T_Sinc, T_Sinc_DRLR, 348.2, hit, 1, 0
807, 6, T_Scon, T_Scon_DGRG, 403.7, hit, 2, 0
808, 6, T_Scon, T_Scon_DGRG, 363.1, hit, 2, 0
809, 6, T_Sinc, T_Sinc_DRLR, 390.6, hit, 1, 0
810, 6, T_Sinc, T_Sinc_DRLR, 410.0, hit, 1, 0
811, 6, T_Scon, T_Scon_URLR, 397.4, hit, 1, 0
812, 6, T_Sinc, T_Sinc_UGRG, 704.9, hit, 2, 2
813, 6, T_Sinc, T_Sinc_UGRG, 372.3, hit, 2, 0
814, 6, T_Scon, T_Scon_URLR, 351.7, hit, 1, 0
815, 6, T_Scon, T_Scon_DGRG, 575.2, hit, 2, 0
816, 6, T_Sinc, T_Sinc_DRLR, 458.6, hit, 1, 0
817, 6, T_Sinc, T_Sinc_DRLR, 394.1, hit, 1, 0
818, 6, T_Scon, T_Scon_URLR, 413.5, hit, 1, 0
819, 6, T_Sinc, T_Sinc_UGRG, 428.9, hit, 2, 0
820, 6, T_Sinc, T_Sinc_DRLR, 464.4, hit, 1, 0
821, 6, T_Sinc, T_Sinc_UGRG, 411.8, hit, 2, 0
822, 6, T_Sinc, T_Sinc_UGRG, 479.2, hit, 2, 0
823, 6, T_Scon, T_Scon_DGRG, 338.7, hit, 2, 0
824, 6, T_Scon, T_Scon_DGRG, 390.2, hit, 2, 0
825, 6, T_Scon, T_Scon_DGRG, 361.5, hit, 2, 0
826, 6, T_Scon, T_Scon_DGRG, 353.0, hit, 2, 0
827, 6, T_Sinc, T_Sinc_DRLR, 376.4, hit, 1, 0
828, 6, T_Scon, T_Scon_URLR, 311.9, hit, 1, 0
829, 6, T_Scon, T_Scon_DGRG, 479.0, hit, 2, 0
830, 6, T_Scon, T_Scon_DGRG, 354.5, hit, 2, 0
831, 6, T_Scon, T_Scon_URLR, 425.9, hit, 1, 0
832, 6, T_Scon, T_Scon_URLR, 285.3, hit, 1, 0
833, 6, T_Sinc, T_Sinc_UGRG, 376.8, hit, 2, 0
834, 6, T_Scon, T_Scon_URLR, 356.2, hit, 1, 0
835, 6, T_Scon, T_Scon_URLR, 339.6, hit, 1, 0
836, 6, T_Sinc, T_Sinc_DRLR, 363.1, hit, 1, 0
837, 6, T_Sinc, T_Sinc_UGRG, 270.6, incorrect, 1, 1
838, 6, T_Scon, T_Scon_DGRG, 434.0, hit, 2, 0
839, 6, T_Sinc, T_Sinc_UGRG, 377.4, hit, 2, 0
840, 6, T_Sinc, T_Sinc_UGRG, 380.8, hit, 2, 0
841, 6, T_Sinc, T_Sinc_DRLR, 416.3, hit, 1, 0
842, 6, T_Scon, T_Scon_URLR, 387.7, hit, 1, 0
843, 6, T_Scon, T_Scon_URLR, 423.2, hit, 1, 0
844, 6, T_Scon, T_Scon_DGRG, 402.6, hit, 2, 0
845, 6, T_Scon, T_Scon_DGRG, 378.0, hit, 2, 0
846, 6, T_Sinc, T_Sinc_UGRG, 349.5, hit, 2, 0
847, 6, T_Sinc, T_Sinc_DRLR, 768.9, hit, 1, 2
848, 6, T_Sinc, T_Sinc_DRLR, 388.3, hit, 1, 0
849, 6, T_Sinc, T_Sinc_DRLR, 363.8, hit, 1, 0
850, 6, T_Sinc, T_Sinc_DRLR, 423.2, hit, 1, 0
851, 6, T_Scon, T_Scon_DGRG, 370.6, hit, 2, 0
852, 6, T_Scon, T_Scon_URLR, 326.1, hit, 1, 0
853, 6, T_Sinc, T_Sinc_DRLR, 381.6, hit, 1, 0
854, 6, T_Scon, T_Scon_DGRG, 416.9, hit, 2, 0
855, 6, T_Sinc, T_Sinc_DRLR, 364.4, hit, 1, 0
856, 6, T_Sinc, T_Sinc_DRLR, 347.9, hit, 1, 0
857, 6, T_Sinc, T_Sinc_UGRG, 379.3, hit, 2, 0
858, 6, T_Sinc, T_Sinc_UGRG, 326.7, hit, 2, 0
859, 6, T_Scon, T_Scon_DGRG, 338.1, hit, 2, 0
860, 6, T_Scon, T_Scon_URLR, 325.6, hit, 1, 0
861, 6, T_Scon, T_Scon_URLR, 397.0, hit, 1, 0
862, 6, T_Scon, T_Scon_DGRG, 424.4, hit, 2, 0
863, 6, T_Scon, T_Scon_URLR, 443.9, hit, 1, 0
864, 6, T_Scon, T_Scon_DGRG, 427.4, hit, 2, 0
865, 7, T_Sinc, T_Sinc_DRLR, 377.5, hit, 1, 0
866, 7, T_Sinc, T_Sinc_DRLR, 396.9, hit, 1, 0
867, 7, T_Sinc, T_Sinc_UGRG, 360.3, hit, 2, 0
868, 7, T_Scon, T_Scon_URLR, 379.8, hit, 1, 0
869, 7, T_Sinc, T_Sinc_DRLR, 319.3, hit, 1, 0
870, 7, T_Sinc, T_Sinc_UGRG, 422.6, hit, 2, 0
871, 7, T_Sinc, T_Sinc_DRLR, 490.1, hit, 1, 0
872, 7, T_Sinc, T_Sinc_DRLR, 421.5, hit, 1, 0
873, 7, T_Scon, T_Scon_URLR, 341.0, hit, 1, 0
874, 7, T_Scon, T_Scon_DGRG, 328.4, hit, 2, 0
875, 7, T_Sinc, T_Sinc_UGRG, 423.8, hit, 2, 0
876, 7, T_Sinc, T_Sinc_DRLR, 375.3, hit, 1, 0
877, 7, T_Sinc, T_Sinc_DRLR, 378.7, hit, 1, 0
878, 7, T_Sinc, T_Sinc_DRLR, 406.1, hit, 1, 0
879, 7, T_Sinc, T_Sinc_DRLR, 385.6, hit, 1, 0
880, 7, T_Sinc, T_Sinc_UGRG, 453.1, hit, 2, 0
881, 7, T_Scon, T_Scon_DGRG, 484.4, hit, 2, 0
882, 7, T_Scon, T_Scon_DGRG, 471.9, hit, 2, 0
883, 7, T_Scon, T_Scon_URLR, 387.3, hit, 1, 0
884, 7, T_Sinc, T_Sinc_UGRG, 430.8, hit, 2, 0
885, 7, T_Sinc, T_Sinc_UGRG, 358.2, hit, 2, 0
886, 7, T_Sinc, T_Sinc_DRLR, 365.6, hit, 1, 0
887, 7, T_Sinc, T_Sinc_UGRG, 401.1, hit, 2, 0
888, 7, T_Scon, T_Scon_URLR, 368.6, hit, 1, 0
889, 7, T_Sinc, T_Sinc_DRLR, 383.9, hit, 1, 0
890, 7, T_Sinc, T_Sinc_DRLR, 375.4, hit, 1, 0
891, 7, T_Sinc, T_Sinc_DRLR, 450.9, hit, 1, 0
892, 7, T_Scon, T_Scon_DGRG, 438.2, hit, 2, 0
893, 7, T_Scon, T_Scon_DGRG, 441.7, hit, 2, 0
894, 7, T_Sinc, T_Sinc_DRLR, 369.2, hit, 1, 0
895, 7, T_Scon, T_Scon_DGRG, 444.5, hit, 2, 0
896, 7, T_Scon, T_Scon_DGRG, 496.0, hit, 2, 0
897, 7, T_Scon, T_Scon_DGRG, 435.5, hit, 2, 0
898, 7, T_Scon, T_Scon_DGRG, 338.9, hit, 2, 0
899, 7, T_Sinc, T_Sinc_DRLR, 522.3, hit, 1, 0
900, 7, T_Scon, T_Scon_URLR, 369.7, hit, 1, 0
901, 7, T_Sinc, T_Sinc_DRLR, 368.9, hit, 1, 0
902, 7, T_Scon, T_Scon_DGRG, 448.3, hit, 2, 0
903, 7, T_Scon, T_Scon_URLR, 403.8, hit, 1, 0
904, 7, T_Sinc, T_Sinc_UGRG, 379.2, hit, 2, 0
905, 7, T_Sinc, T_Sinc_UGRG, 414.7, hit, 2, 0
906, 7, T_Sinc, T_Sinc_UGRG, 342.1, hit, 2, 0
907, 7, T_Scon, T_Scon_URLR, 365.5, hit, 1, 0
908, 7, T_Scon, T_Scon_URLR, 389.0, hit, 1, 0
909, 7, T_Sinc, T_Sinc_UGRG, 408.5, hit, 2, 0
910, 7, T_Sinc, T_Sinc_DRLR, 391.8, hit, 1, 0
911, 7, T_Scon, T_Scon_URLR, 387.3, hit, 1, 0
912, 7, T_Scon, T_Scon_DGRG, 386.8, hit, 2, 0
913, 7, T_Scon, T_Scon_URLR, 370.1, hit, 1, 0
914, 7, T_Sinc, T_Sinc_DRLR, 365.6, hit, 1, 0
915, 7, T_Sinc, T_Sinc_DRLR, 337.0, hit, 1, 0
916, 7, T_Scon, T_Scon_DGRG, 412.5, hit, 2, 0
917, 7, T_Sinc, T_Sinc_DRLR, 399.9, hit, 1, 0
918, 7, T_Sinc, T_Sinc_DRLR, 387.3, hit, 1, 0
919, 7, T_Scon, T_Scon_DGRG, 418.8, hit, 2, 0
920, 7, T_Scon, T_Scon_URLR, 394.3, hit, 1, 0
921, 7, T_Scon, T_Scon_DGRG, 485.6, hit, 2, 0
922, 7, T_Sinc, T_Sinc_DRLR, 625.1, hit, 1, 2
923, 7, T_Scon, T_Scon_URLR, 420.6, hit, 1, 0
924, 7, T_Sinc, T_Sinc_UGRG, 416.0, hit, 2, 0
925, 7, T_Sinc, T_Sinc_UGRG, 363.4, hit, 2, 0
926, 7, T_Scon, T_Scon_DGRG, 446.8, hit, 2, 0
927, 7, T_Scon, T_Scon_DGRG, 402.3, hit, 2, 0
928, 7, T_Sinc, T_Sinc_UGRG, 421.7, hit, 2, 0
929, 7, T_Scon, T_Scon_URLR, 449.1, hit, 1, 0
930, 7, T_Sinc, T_Sinc_DRLR, 368.6, hit, 1, 0
931, 7, T_Scon, T_Scon_URLR, 372.1, hit, 1, 0
932, 7, T_Scon, T_Scon_DGRG, 335.4, hit, 2, 0
933, 7, T_Scon, T_Scon_URLR, 370.9, hit, 1, 0
934, 7, T_Sinc, T_Sinc_UGRG, 442.4, hit, 2, 0
935, 7, T_Scon, T_Scon_URLR, 337.7, hit, 1, 0
936, 7, T_Sinc, T_Sinc_DRLR, 353.2, hit, 1, 0
937, 7, T_Scon, T_Scon_URLR, 500.4, hit, 1, 0
938, 7, T_Scon, T_Scon_DGRG, 395.8, hit, 2, 0
939, 7, T_Scon, T_Scon_URLR, 447.2, hit, 1, 0
940, 7, T_Scon, T_Scon_DGRG, 426.7, hit, 2, 0
941, 7, T_Scon, T_Scon_DGRG, 318.2, hit, 2, 0
942, 7, T_Sinc, T_Sinc_UGRG, 409.5, hit, 2, 0
943, 7, T_Scon, T_Scon_URLR, 397.0, hit, 1, 0
944, 7, T_Scon, T_Scon_URLR, 256.5, hit, 1, 0
945, 7, T_Scon, T_Scon_DGRG, 371.9, hit, 2, 0
946, 7, T_Scon, T_Scon_DGRG, 431.3, hit, 2, 0
947, 7, T_Scon, T_Scon_DGRG, 354.7, hit, 2, 0
948, 7, T_Scon, T_Scon_DGRG, 322.2, hit, 2, 0
949, 7, T_Sinc, T_Sinc_UGRG, 317.6, hit, 2, 0
950, 7, T_Scon, T_Scon_URLR, 409.0, hit, 1, 0
951, 7, T_Scon, T_Scon_URLR, 464.5, hit, 1, 0
952, 7, T_Scon, T_Scon_URLR, 323.9, hit, 1, 0
953, 7, T_Scon, T_Scon_URLR, 295.3, hit, 1, 0
954, 7, T_Sinc, T_Sinc_UGRG, 470.8, hit, 2, 0
955, 7, T_Scon, T_Scon_DGRG, 386.3, hit, 2, 0
956, 7, T_Sinc, T_Sinc_DRLR, 405.6, hit, 1, 0
957, 7, T_Scon, T_Scon_DGRG, 369.1, hit, 2, 0
958, 7, T_Scon, T_Scon_DGRG, 340.5, hit, 2, 0
959, 7, T_Scon, T_Scon_DGRG, 312.0, hit, 2, 0
960, 7, T_Scon, T_Scon_URLR, 483.5, hit, 1, 0
961, 7, T_Scon, T_Scon_DGRG, 426.8, hit, 2, 0
962, 7, T_Sinc, T_Sinc_DRLR, 414.3, hit, 1, 0
963, 7, T_Sinc, T_Sinc_DRLR, 337.8, hit, 1, 0
964, 7, T_Sinc, T_Sinc_UGRG, 381.2, hit, 2, 0
965, 7, T_Sinc, T_Sinc_UGRG, 460.6, hit, 2, 0
966, 7, T_Sinc, T_Sinc_DRLR, 368.1, hit, 1, 0
967, 7, T_Scon, T_Scon_URLR, 395.5, hit, 1, 0
968, 7, T_Scon, T_Scon_URLR, 335.0, hit, 1, 0
969, 7, T_Scon, T_Scon_DGRG, 422.3, hit, 2, 0
970, 7, T_Scon, T_Scon_DGRG, 377.8, hit, 2, 0
971, 7, T_Scon, T_Scon_DGRG, 357.3, hit, 2, 0
972, 7, T_Scon, T_Scon_DGRG, 440.7, hit, 2, 0
973, 7, T_Sinc, T_Sinc_DRLR, 415.8, hit, 1, 0
974, 7, T_Scon, T_Scon_URLR, 411.3, hit, 1, 0
975, 7, T_Scon, T_Scon_URLR, 502.8, hit, 1, 0
976, 7, T_Sinc, T_Sinc_UGRG, 390.1, hit, 2, 0
977, 7, T_Sinc, T_Sinc_UGRG, 405.6, hit, 2, 0
978, 7, T_Sinc, T_Sinc_DRLR, 377.1, hit, 1, 0
979, 7, T_Sinc, T_Sinc_UGRG, 456.4, hit, 2, 0
980, 7, T_Scon, T_Scon_URLR, 355.9, hit, 1, 0
981, 7, T_Sinc, T_Sinc_UGRG, 463.4, hit, 2, 0
982, 7, T_Sinc, T_Sinc_UGRG, 334.8, hit, 2, 0
983, 7, T_Scon, T_Scon_DGRG, 426.2, hit, 2, 0
984, 7, T_Scon, T_Scon_DGRG, 377.7, hit, 2, 0
985, 7, T_Sinc, T_Sinc_UGRG, 353.1, hit, 2, 0
986, 7, T_Sinc, T_Sinc_DRLR, 364.5, hit, 1, 0
987, 7, T_Scon, T_Scon_URLR, 399.9, hit, 1, 0
988, 7, T_Sinc, T_Sinc_DRLR, 391.4, hit, 1, 0
989, 7, T_Sinc, T_Sinc_UGRG, 410.9, hit, 2, 0
990, 7, T_Sinc, T_Sinc_UGRG, 426.2, hit, 2, 0
991, 7, T_Sinc, T_Sinc_UGRG, 421.7, hit, 2, 0
992, 7, T_Sinc, T_Sinc_UGRG, 345.2, hit, 2, 0
993, 7, T_Sinc, T_Sinc_UGRG, 324.7, hit, 2, 0
994, 7, T_Sinc, T_Sinc_DRLR, 420.0, hit, 1, 0
995, 7, T_Scon, T_Scon_URLR, 319.5, hit, 1, 0
996, 7, T_Sinc, T_Sinc_UGRG, 882.9, hit, 2, 2
997, 7, T_Sinc, T_Sinc_DRLR, 734.4, hit, 1, 2
998, 7, T_Scon, T_Scon_DGRG, 513.7, hit, 2, 0
999, 7, T_Scon, T_Scon_URLR, 477.2, hit, 1, 0
1000, 7, T_Sinc, T_Sinc_DRLR, 336.7, hit, 1, 0
1001, 7, T_Sinc, T_Sinc_DRLR, 436.0, hit, 1, 0
1002, 7, T_Sinc, T_Sinc_UGRG, 327.5, hit, 2, 0
1003, 7, T_Scon, T_Scon_URLR, 455.0, hit, 1, 0
1004, 7, T_Sinc, T_Sinc_UGRG, 390.4, hit, 2, 0
1005, 7, T_Sinc, T_Sinc_UGRG, 425.8, hit, 2, 0
1006, 7, T_Scon, T_Scon_URLR, 489.3, hit, 1, 0
1007, 7, T_Sinc, T_Sinc_UGRG, 428.7, hit, 2, 0
1008, 7, T_Scon, T_Scon_URLR, 408.2, hit, 1, 0
1009, 8, T_Scon, T_Scon_DGRG, 464.1, hit, 2, 0
1010, 8, T_Scon, T_Scon_DGRG, 355.5, hit, 2, 0
1011, 8, T_Sinc, T_Sinc_DRLR, 358.9, hit, 1, 0
1012, 8, T_Sinc, T_Sinc_UGRG, 390.4, hit, 2, 0
1013, 8, T_Sinc, T_Sinc_DRLR, 361.8, hit, 1, 0
1014, 8, T_Sinc, T_Sinc_UGRG, 273.2, hit, 2, 0
1015, 8, T_Sinc, T_Sinc_DRLR, 336.7, hit, 1, 0
1016, 8, T_Sinc, T_Sinc_DRLR, 308.1, hit, 1, 0
1017, 8, T_Sinc, T_Sinc_UGRG, 335.5, hit, 2, 0
1018, 8, T_Scon, T_Scon_DGRG, 419.0, hit, 2, 0
1019, 8, T_Scon, T_Scon_DGRG, 338.4, hit, 2, 0
1020, 8, T_Sinc, T_Sinc_DRLR, 357.8, hit, 1, 0
1021, 8, T_Scon, T_Scon_DGRG, 385.3, hit, 2, 0
1022, 8, T_Scon, T_Scon_URLR, 376.7, hit, 1, 0
1023, 8, T_Scon, T_Scon_DGRG, 356.2, hit, 2, 0
1024, 8, T_Scon, T_Scon_URLR, 467.5, hit, 1, 0
1025, 8, T_Scon, T_Scon_URLR, 307.0, hit, 1, 0
1026, 8, T_Sinc, T_Sinc_UGRG, 286.5, hit, 2, 0
1027, 8, T_Sinc, T_Sinc_DRLR, 401.9, hit, 1, 0
1028, 8, T_Scon, T_Scon_URLR, 301.3, hit, 1, 0
1029, 8, T_Sinc, T_Sinc_UGRG, 360.8, hit, 2, 0
1030, 8, T_Sinc, T_Sinc_UGRG, 340.2, hit, 2, 0
1031, 8, T_Scon, T_Scon_DGRG, 331.7, hit, 2, 0
1032, 8, T_Scon, T_Scon_URLR, 351.1, hit, 1, 0
1033, 8, T_Sinc, T_Sinc_UGRG, 442.5, hit, 2, 0
1034, 8, T_Sinc, T_Sinc_UGRG, 290.0, hit, 2, 0
1035, 8, T_Sinc, T_Sinc_DRLR, 353.4, hit, 1, 0
1036, 8, T_Scon, T_Scon_URLR, 308.8, hit, 1, 0
1037, 8, T_Scon, T_Scon_URLR, 320.3, hit, 1, 0
1038, 8, T_Sinc, T_Sinc_DRLR, 323.7, hit, 1, 0
1039, 8, T_Scon, T_Scon_URLR, 271.1, hit, 1, 0
1040, 8, T_Scon, T_Scon_DGRG, 398.6, hit, 2, 0
1041, 8, T_Sinc, T_Sinc_DRLR, 382.0, hit, 1, 0
1042, 8, T_Sinc, T_Sinc_UGRG, 417.4, hit, 2, 0
1043, 8, T_Scon, T_Scon_URLR, 444.9, hit, 1, 0
1044, 8, T_Sinc, T_Sinc_DRLR, 348.3, hit, 1, 0
1045, 8, T_Scon, T_Scon_URLR, 459.4, hit, 1, 0
1046, 8, T_Sinc, T_Sinc_UGRG, 374.9, hit, 2, 0
1047, 8, T_Scon, T_Scon_DGRG, 346.4, hit, 2, 0
1048, 8, T_Scon, T_Scon_DGRG, 333.8, hit, 2, 0
1049, 8, T_Scon, T_Scon_URLR, 385.2, hit, 1, 0
1050, 8, T_Sinc, T_Sinc_UGRG, 380.7, hit, 2, 0
1051, 8, T_Sinc, T_Sinc_DRLR, 332.1, hit, 1, 0
1052, 8, T_Sinc, T_Sinc_DRLR, 315.5, hit, 1, 0
1053, 8, T_Scon, T_Scon_URLR, 311.0, hit, 1, 0
1054, 8, T_Scon, T_Scon_URLR, 338.4, hit, 1, 0
1055, 8, T_Sinc, T_Sinc_DRLR, 317.9, hit, 1, 0
1056, 8, T_Sinc, T_Sinc_UGRG, 369.3, hit, 2, 0
1057, 8, T_Sinc, T_Sinc_DRLR, 364.7, hit, 1, 0
1058, 8, T_Sinc, T_Sinc_DRLR, 292.2, hit, 1, 0
1059, 8, T_Scon, T_Scon_DGRG, 347.6, hit, 2, 0
1060, 8, T_Scon, T_Scon_DGRG, 343.1, hit, 2, 0
1061, 8, T_Sinc, T_Sinc_UGRG, 606.5, hit, 2, 0
1062, 8, T_Sinc, T_Sinc_DRLR, 397.9, hit, 1, 0
1063, 8, T_Sinc, T_Sinc_UGRG, 393.4, hit, 2, 0
1064, 8, T_Scon, T_Scon_DGRG, 372.8, hit, 2, 0
1065, 8, T_Sinc, T_Sinc_DRLR, 400.2, hit, 1, 0
1066, 8, T_Scon, T_Scon_URLR, 419.7, hit, 1, 0
1067, 8, T_Sinc, T_Sinc_UGRG, 387.1, hit, 2, 0
1068, 8, T_Sinc, T_Sinc_DRLR, 358.5, hit, 1, 0
1069, 8, T_Scon, T_Scon_DGRG, 406.0, hit, 2, 0
1070, 8, T_Sinc, T_Sinc_DRLR, 461.4, hit, 1, 0
1071, 8, T_Scon, T_Scon_DGRG, 416.8, hit, 2, 0
1072, 8, T_Scon, T_Scon_DGRG, 444.3, hit, 2, 0
1073, 8, T_Sinc, T_Sinc_DRLR, 343.7, hit, 1, 0
1074, 8, T_Sinc, T_Sinc_UGRG, 371.2, hit, 2, 0
1075, 8, T_Sinc, T_Sinc_UGRG, 362.6, hit, 2, 0
1076, 8, T_Sinc, T_Sinc_UGRG, 290.0, hit, 2, 0
1077, 8, T_Scon, T_Scon_URLR, 349.5, hit, 1, 0
1078, 8, T_Sinc, T_Sinc_UGRG, 293.0, hit, 2, 0
1079, 8, T_Sinc, T_Sinc_UGRG, 324.3, hit, 2, 0
1080, 8, T_Scon, T_Scon_URLR, 431.8, hit, 1, 0
1081, 8, T_Scon, T_Scon_URLR, 399.0, hit, 1, 0
1082, 8, T_Scon, T_Scon_DGRG, 374.3, hit, 2, 0
1083, 8, T_Scon, T_Scon_DGRG, 321.8, hit, 2, 0
1084, 8, T_Scon, T_Scon_DGRG, 313.3, hit, 2, 0
1085, 8, T_Scon, T_Scon_DGRG, 304.7, hit, 2, 0
1086, 8, T_Scon, T_Scon_DGRG, 356.1, hit, 2, 0
1087, 8, T_Sinc, T_Sinc_UGRG, 295.6, hit, 2, 0
1088, 8, T_Scon, T_Scon_URLR, 323.0, hit, 1, 0
1089, 8, T_Sinc, T_Sinc_UGRG, 534.5, hit, 2, 0
1090, 8, T_Scon, T_Scon_DGRG, 389.9, hit, 2, 0
1091, 8, T_Scon, T_Scon_URLR, 393.3, hit, 1, 0
1092, 8, T_Sinc, T_Sinc_DRLR, 408.8, hit, 1, 0
1093, 8, T_Scon, T_Scon_DGRG, 372.2, hit, 2, 0
1094, 8, T_Scon, T_Scon_DGRG, 319.6, hit, 2, 0
1095, 8, T_Scon, T_Scon_URLR, 331.1, hit, 1, 0
1096, 8, T_Sinc, T_Sinc_DRLR, 318.5, hit, 1, 0
1097, 8, T_Scon, T_Scon_URLR, 450.0, hit, 1, 0
1098, 8, T_Scon, T_Scon_URLR, 329.4, hit, 1, 0
1099, 8, T_Sinc, T_Sinc_UGRG, 380.8, hit, 2, 0
1100, 8, T_Sinc, T_Sinc_DRLR, 432.3, hit, 1, 0
1101, 8, T_Sinc, T_Sinc_DRLR, 327.7, hit, 1, 0
1102, 8, T_Scon, T_Scon_DGRG, 395.1, hit, 2, 0
1103, 8, T_Scon, T_Scon_DGRG, 382.6, hit, 2, 0
1104, 8, T_Sinc, T_Sinc_UGRG, 326.1, hit, 2, 0
1105, 8, T_Sinc, T_Sinc_DRLR, 385.5, hit, 1, 0
1106, 8, T_Scon, T_Scon_URLR, 332.9, hit, 1, 0
1107, 8, T_Scon, T_Scon_DGRG, 388.3, hit, 2, 0
1108, 8, T_Sinc, T_Sinc_DRLR, 503.8, hit, 1, 0
1109, 8, T_Scon, T_Scon_URLR, 395.2, hit, 1, 0
1110, 8, T_Sinc, T_Sinc_DRLR, 310.6, hit, 1, 0
1111, 8, T_Scon, T_Scon_URLR, 434.1, hit, 1, 0
1112, 8, T_Sinc, T_Sinc_UGRG, 397.6, hit, 2, 0
1113, 8, T_Sinc, T_Sinc_DRLR, 416.9, hit, 1, 0
1114, 8, T_Sinc, T_Sinc_UGRG, 340.4, hit, 2, 0
1115, 8, T_Scon, T_Scon_URLR, 431.9, hit, 1, 0
1116, 8, T_Scon, T_Scon_DGRG, 411.2, hit, 2, 0
1117, 8, T_Sinc, T_Sinc_UGRG, 466.4, hit, 2, 0
1118, 8, T_Sinc, T_Sinc_UGRG, 581.9, hit, 2, 0
1119, 8, T_Sinc, T_Sinc_DRLR, 385.3, hit, 1, 0
1120, 8, T_Scon, T_Scon_URLR, 384.7, hit, 1, 0
1121, 8, T_Sinc, T_Sinc_DRLR, 344.2, hit, 1, 0
1122, 8, T_Sinc, T_Sinc_DRLR, 423.8, hit, 1, 0
1123, 8, T_Scon, T_Scon_DGRG, 315.0, hit, 2, 0
1124, 8, T_Scon, T_Scon_DGRG, 454.5, hit, 2, 0
1125, 8, T_Scon, T_Scon_URLR, 377.9, hit, 1, 0
1126, 8, T_Sinc, T_Sinc_DRLR, 425.3, hit, 1, 0
1127, 8, T_Sinc, T_Sinc_DRLR, 316.8, hit, 1, 0
1128, 8, T_Scon, T_Scon_URLR, 376.2, hit, 1, 0
1129, 8, T_Scon, T_Scon_URLR, 347.6, hit, 1, 0
1130, 8, T_Scon, T_Scon_DGRG, 383.1, hit, 2, 0
1131, 8, T_Scon, T_Scon_URLR, 354.5, hit, 1, 0
1132, 8, T_Sinc, T_Sinc_UGRG, 366.0, hit, 2, 0
1133, 8, T_Sinc, T_Sinc_UGRG, 313.4, hit, 2, 0
1134, 8, T_Scon, T_Scon_URLR, 396.8, hit, 1, 0
1135, 8, T_Scon, T_Scon_DGRG, 388.3, hit, 2, 0
1136, 8, T_Scon, T_Scon_URLR, 399.8, hit, 1, 0
1137, 8, T_Sinc, T_Sinc_UGRG, 379.1, hit, 2, 0
1138, 8, T_Scon, T_Scon_DGRG, 350.6, hit, 2, 0
1139, 8, T_Scon, T_Scon_URLR, 350.0, hit, 1, 0
1140, 8, T_Sinc, T_Sinc_UGRG, 381.5, hit, 2, 0
1141, 8, T_Sinc, T_Sinc_UGRG, 324.9, hit, 2, 0
1142, 8, T_Sinc, T_Sinc_DRLR, 396.3, hit, 1, 0
1143, 8, T_Sinc, T_Sinc_DRLR, 327.8, hit, 1, 0
1144, 8, T_Sinc, T_Sinc_UGRG, 355.3, hit, 2, 0
1145, 8, T_Scon, T_Scon_URLR, 414.6, hit, 1, 0
1146, 8, T_Scon, T_Scon_DGRG, 338.1, hit, 2, 0
1147, 8, T_Scon, T_Scon_DGRG, 357.6, hit, 2, 0
1148, 8, T_Sinc, T_Sinc_UGRG, 396.9, hit, 2, 0
1149, 8, T_Scon, T_Scon_DGRG, 388.4, hit, 2, 0
1150, 8, T_Sinc, T_Sinc_UGRG, 327.8, hit, 2, 0
1151, 8, T_Scon, T_Scon_URLR, 383.3, hit, 1, 0
1152, 8, T_Sinc, T_Sinc_DRLR, 326.7, hit, 1, 0
1153, 9, T_Sinc, T_Sinc_UGRG, 362.7, hit, 2, 0
1154, 9, T_Scon, T_Scon_DGRG, 310.2, hit, 2, 0
1155, 9, T_Sinc, T_Sinc_DRLR, 329.6, hit, 1, 0
1156, 9, T_Sinc, T_Sinc_UGRG, 357.1, hit, 2, 0
1157, 9, T_Scon, T_Scon_DGRG, 340.4, hit, 2, 0
1158, 9, T_Scon, T_Scon_URLR, 359.9, hit, 1, 0
1159, 9, T_Scon, T_Scon_URLR, 307.4, hit, 1, 0
1160, 9, T_Scon, T_Scon_URLR, 326.7, hit, 1, 0
1161, 9, T_Sinc, T_Sinc_DRLR, 358.2, hit, 1, 0
1162, 9, T_Sinc, T_Sinc_UGRG, 441.7, hit, 2, 0
1163, 9, T_Scon, T_Scon_URLR, 533.1, hit, 1, 0
1164, 9, T_Scon, T_Scon_DGRG, 376.5, hit, 2, 0
1165, 9, T_Sinc, T_Sinc_DRLR, 428.0, hit, 1, 0
1166, 9, T_Sinc, T_Sinc_DRLR, 299.4, hit, 1, 0
1167, 9, T_Scon, T_Scon_DGRG, 438.8, hit, 2, 0
1168, 9, T_Sinc, T_Sinc_UGRG, 418.3, hit, 2, 0
1169, 9, T_Scon, T_Scon_URLR, 637.7, hit, 1, 2
1170, 9, T_Sinc, T_Sinc_DRLR, 353.1, hit, 1, 0
1171, 9, T_Scon, T_Scon_URLR, 300.6, hit, 1, 0
1172, 9, T_Sinc, T_Sinc_DRLR, 288.0, hit, 1, 0
1173, 9, T_Scon, T_Scon_DGRG, 303.5, hit, 2, 0
1174, 9, T_Scon, T_Scon_DGRG, 330.8, hit, 2, 0
1175, 9, T_Sinc, T_Sinc_UGRG, 302.3, hit, 2, 0
1176, 9, T_Sinc, T_Sinc_DRLR, 549.8, hit, 1, 0
1177, 9, T_Sinc, T_Sinc_UGRG, 329.1, hit, 2, 0
1178, 9, T_Sinc, T_Sinc_DRLR, 308.6, hit, 1, 0
1179, 9, T_Sinc, T_Sinc_DRLR, 288.1, hit, 1, 0
1180, 9, T_Scon, T_Scon_DGRG, 367.5, hit, 2, 0
1181, 9, T_Scon, T_Scon_URLR, 346.9, hit, 1, 0
1182, 9, T_Sinc, T_Sinc_UGRG, 438.4, hit, 2, 0
1183, 9, T_Scon, T_Scon_DGRG, 377.8, hit, 2, 0
1184, 9, T_Sinc, T_Sinc_DRLR, 337.3, hit, 1, 0
1185, 9, T_Sinc, T_Sinc_DRLR, 292.7, hit, 1, 0
1186, 9, T_Sinc, T_Sinc_UGRG, 368.1, hit, 2, 0
1187, 9, T_Sinc, T_Sinc_UGRG, 295.6, hit, 2, 0
1188, 9, T_Sinc, T_Sinc_DRLR, 351.0, hit, 1, 0
1189, 9, T_Scon, T_Scon_URLR, 422.1, hit, 1, 0
1190, 9, T_Scon, T_Scon_DGRG, 361.6, hit, 2, 0
1191, 9, T_Scon, T_Scon_URLR, 409.0, hit, 1, 0
1192, 9, T_Sinc, T_Sinc_DRLR, 364.4, hit, 1, 0
1193, 9, T_Scon, T_Scon_URLR, 279.9, hit, 1, 0
1194, 9, T_Sinc, T_Sinc_DRLR, 315.3, hit, 1, 0
1195, 9, T_Sinc, T_Sinc_UGRG, 374.7, hit, 2, 0
1196, 9, T_Sinc, T_Sinc_UGRG, 446.2, hit, 2, 0
1197, 9, T_Scon, T_Scon_URLR, 569.7, hit, 1, 0
1198, 9, T_Scon, T_Scon_URLR, 277.0, hit, 1, 0
1199, 9, T_Sinc, T_Sinc_DRLR, 332.5, hit, 1, 0
1200, 9, T_Sinc, T_Sinc_DRLR, 304.0, hit, 1, 0
1201, 9, T_Scon, T_Scon_DGRG, 383.4, hit, 2, 0
1202, 9, T_Sinc, T_Sinc_UGRG, 318.8, hit, 2, 0
1203, 9, T_Scon, T_Scon_DGRG, 382.2, hit, 2, 0
1204, 9, T_Sinc, T_Sinc_UGRG, 285.7, hit, 2, 0
1205, 9, T_Scon, T_Scon_URLR, 369.2, hit, 1, 0
1206, 9, T_Scon, T_Scon_DGRG, 336.5, hit, 2, 0
1207, 9, T_Scon, T_Scon_URLR, 380.0, hit, 1, 0
1208, 9, T_Scon, T_Scon_DGRG, 427.5, hit, 2, 0
1209, 9, T_Scon, T_Scon_DGRG, 330.8, hit, 2, 0
1210, 9, T_Scon, T_Scon_URLR, 266.3, hit, 1, 0
1211, 9, T_Scon, T_Scon_URLR, 337.8, hit, 1, 0
1212, 9, T_Scon, T_Scon_URLR, 341.1, hit, 1, 0
1213, 9, T_Sinc, T_Sinc_UGRG, 316.6, hit, 2, 0
1214, 9, T_Sinc, T_Sinc_UGRG, 308.1, hit, 2, 0
1215, 9, T_Scon, T_Scon_DGRG, 411.5, hit, 2, 0
1216, 9, T_Scon, T_Scon_URLR, 382.9, hit, 1, 0
1217, 9, T_Scon, T_Scon_DGRG, 406.3, hit, 2, 0
1218, 9, T_Scon, T_Scon_DGRG, 313.8, hit, 2, 0
1219, 9, T_Sinc, T_Sinc_DRLR, 349.3, hit, 1, 0
1220, 9, T_Scon, T_Scon_URLR, 364.6, hit, 1, 0
1221, 9, T_Sinc, T_Sinc_DRLR, 288.1, hit, 1, 0
1222, 9, T_Scon, T_Scon_DGRG, 427.6, hit, 2, 0
1223, 9, T_Sinc, T_Sinc_UGRG, 322.9, hit, 2, 0
1224, 9, T_Sinc, T_Sinc_DRLR, 330.4, hit, 1, 0
1225, 9, T_Scon, T_Scon_URLR, 385.6, hit, 1, 0
1226, 9, T_Sinc, T_Sinc_UGRG, 413.0, hit, 2, 0
1227, 9, T_Scon, T_Scon_DGRG, 364.4, hit, 2, 0
1228, 9, T_Scon, T_Scon_DGRG, 375.9, hit, 2, 0
1229, 9, T_Scon, T_Scon_URLR, 379.4, hit, 1, 0
1230, 9, T_Scon, T_Scon_DGRG, 430.7, hit, 2, 0
1231, 9, T_Sinc, T_Sinc_DRLR, 558.2, hit, 1, 0
1232, 9, T_Scon, T_Scon_URLR, 385.7, hit, 1, 0
1233, 9, T_Sinc, T_Sinc_UGRG, 349.0, hit, 2, 0
1234, 9, T_Sinc, T_Sinc_DRLR, 296.5, hit, 1, 0
1235, 9, T_Scon, T_Scon_URLR, 403.9, hit, 1, 0
1236, 9, T_Sinc, T_Sinc_UGRG, 407.4, hit, 2, 0
1237, 9, T_Sinc, T_Sinc_DRLR, 338.8, hit, 1, 0
1238, 9, T_Scon, T_Scon_URLR, 286.2, hit, 1, 0
1239, 9, T_Sinc, T_Sinc_UGRG, 349.7, hit, 2, 0
1240, 9, T_Sinc, T_Sinc_UGRG, 369.2, hit, 2, 0
1241, 9, T_Sinc, T_Sinc_DRLR, 380.5, hit, 1, 0
1242, 9, T_Sinc, T_Sinc_DRLR, 320.0, hit, 1, 0
1243, 9, T_Sinc, T_Sinc_UGRG, 387.5, hit, 2, 0
1244, 9, T_Scon, T_Scon_URLR, 310.9, hit, 1, 0
1245, 9, T_Sinc, T_Sinc_DRLR, 354.3, hit, 1, 0
1246, 9, T_Scon, T_Scon_DGRG, 329.7, hit, 2, 0
1247, 9, T_Sinc, T_Sinc_DRLR, 409.2, hit, 1, 0
1248, 9, T_Sinc, T_Sinc_DRLR, 348.7, hit, 1, 0
1249, 9, T_Scon, T_Scon_DGRG, 376.0, hit, 2, 0
1250, 9, T_Sinc, T_Sinc_UGRG, 291.5, hit, 2, 0
1251, 9, T_Scon, T_Scon_DGRG, 294.9, hit, 2, 0
1252, 9, T_Sinc, T_Sinc_UGRG, 306.4, hit, 2, 0
1253, 9, T_Sinc, T_Sinc_UGRG, 277.8, hit, 2, 0
1254, 9, T_Scon, T_Scon_DGRG, 329.3, hit, 2, 0
1255, 9, T_Scon, T_Scon_DGRG, 436.7, hit, 2, 0
1256, 9, T_Scon, T_Scon_URLR, 376.2, hit, 1, 0
1257, 9, T_Sinc, T_Sinc_UGRG, 395.5, hit, 2, 0
1258, 9, T_Sinc, T_Sinc_DRLR, 343.0, hit, 1, 0
1259, 9, T_Scon, T_Scon_URLR, 338.5, hit, 1, 0
1260, 9, T_Scon, T_Scon_URLR, 397.9, hit, 1, 0
1261, 9, T_Sinc, T_Sinc_UGRG, 321.0, hit, 2, 0
1262, 9, T_Scon, T_Scon_DGRG, 352.6, hit, 2, 0
1263, 9, T_Sinc, T_Sinc_DRLR, 376.0, hit, 1, 0
1264, 9, T_Scon, T_Scon_DGRG, 443.3, hit, 2, 0
1265, 9, T_Sinc, T_Sinc_UGRG, 362.8, hit, 2, 0
1266, 9, T_Sinc, T_Sinc_DRLR, 422.3, hit, 1, 0
1267, 9, T_Sinc, T_Sinc_DRLR, 573.7, hit, 1, 0
1268, 9, T_Sinc, T_Sinc_UGRG, 453.1, hit, 2, 0
1269, 9, T_Scon, T_Scon_DGRG, 408.6, hit, 2, 0
1270, 9, T_Scon, T_Scon_DGRG, 300.0, hit, 2, 0
1271, 9, T_Sinc, T_Sinc_DRLR, 367.5, hit, 1, 0
1272, 9, T_Scon, T_Scon_DGRG, 354.8, hit, 2, 0
1273, 9, T_Scon, T_Scon_URLR, 350.3, hit, 1, 0
1274, 9, T_Sinc, T_Sinc_UGRG, 325.8, hit, 2, 0
1275, 9, T_Scon, T_Scon_URLR, 449.1, hit, 1, 0
1276, 9, T_Scon, T_Scon_URLR, 304.6, hit, 1, 0
1277, 9, T_Scon, T_Scon_URLR, 300.1, hit, 1, 0
1278, 9, T_Scon, T_Scon_URLR, 251.5, hit, 1, 0
1279, 9, T_Sinc, T_Sinc_UGRG, 338.9, hit, 2, 0
1280, 9, T_Scon, T_Scon_URLR, 418.4, hit, 1, 0
1281, 9, T_Scon, T_Scon_URLR, 321.8, hit, 1, 0
1282, 9, T_Scon, T_Scon_DGRG, 357.2, hit, 2, 0
1283, 9, T_Sinc, T_Sinc_DRLR, 480.7, hit, 1, 0
1284, 9, T_Sinc, T_Sinc_UGRG, 348.1, hit, 2, 0
1285, 9, T_Sinc, T_Sinc_DRLR, 283.6, hit, 1, 0
1286, 9, T_Scon, T_Scon_DGRG, 430.9, hit, 2, 0
1287, 9, T_Scon, T_Scon_URLR, 382.4, hit, 1, 0
1288, 9, T_Sinc, T_Sinc_UGRG, 529.9, hit, 2, 0
1289, 9, T_Scon, T_Scon_DGRG, 417.2, hit, 2, 0
1290, 9, T_Sinc, T_Sinc_UGRG, 324.7, hit, 2, 0
1291, 9, T_Sinc, T_Sinc_UGRG, 392.1, hit, 2, 0
1292, 9, T_Scon, T_Scon_DGRG, 339.6, hit, 2, 0
1293, 9, T_Sinc, T_Sinc_DRLR, 351.0, hit, 1, 0
1294, 9, T_Sinc, T_Sinc_DRLR, 370.5, hit, 1, 0
1295, 9, T_Sinc, T_Sinc_UGRG, 381.9, hit, 2, 0
1296, 9, T_Scon, T_Scon_DGRG, 457.4, hit, 2, 0
