trial_index, block, condition, full_condition_code, RT, response_type, response_key, error_outlier
1, 1, T_Scon, T_Scon_DRRR, 366.8, hit, 2, 0
2, 1, T_Scon, T_Scon_DRRR, 478.3, hit, 2, 0
3, 1, T_Scon, T_Scon_UGLG, 329.7, hit, 1, 0
4, 1, T_Sinc, T_Sinc_DGLG, 361.1, hit, 1, 0
5, 1, T_Scon, T_Scon_UGLG, 380.6, hit, 1, 0
6, 1, T_Scon, T_Scon_DRRR, 308.1, hit, 2, 0
7, 1, T_Scon, T_Scon_UGLG, 299.4, hit, 1, 0
8, 1, T_Scon, T_Scon_DRRR, 270.9, hit, 2, 0
9, 1, T_Scon, T_Scon_UGLG, 438.3, hit, 1, 0
10, 1, T_Scon, T_Scon_DRRR, 529.7, hit, 2, 0
11, 1, T_Scon, T_Scon_DRRR, 405.2, incorrect, 1, 1
12, 1, T_Scon, T_Scon_UGLG, 512.6, hit, 1, 0
13, 1, T_Sinc, T_Sinc_URRR, 372.0, hit, 2, 0
14, 1, T_Scon, T_Scon_UGLG, 407.5, hit, 1, 0
15, 1, T_Scon, T_Scon_DRRR, 402.9, hit, 2, 0
16, 1, T_Scon, T_Scon_DRRR, 470.3, hit, 2, 0
17, 1, T_Scon, T_Scon_UGLG, 361.8, hit, 1, 0
18, 1, T_Scon, T_Scon_UGLG, 393.2, hit, 1, 0
19, 1, T_Scon, T_Scon_UGLG, 376.6, hit, 1, 0
20, 1, T_Sinc, T_Sinc_DGLG, 356.1, hit, 1, 0
21, 1, T_Scon, T_Scon_DRRR, 335.5, hit, 2, 0
22, 1, T_Sinc, T_Sinc_URRR, 371.0, hit, 2, 0
23, 1, T_Sinc, T_Sinc_DGLG, 366.3, hit, 1, 0
24, 1, T_Scon, T_Scon_DRRR, 569.8, hit, 2, 0
25, 1, T_Scon, T_Scon_UGLG, 277.3, hit, 1, 0
26, 1, T_Sinc, T_Sinc_URRR, 560.7, hit, 2, 0
27, 1, T_Scon, T_Scon_DRRR, 360.1, hit, 2, 0
28, 1, T_Scon, T_Scon_UGLG, 343.5, hit, 1, 0
29, 1, T_Scon, T_Scon_UGLG, 299.0, hit, 1, 0
30, 1, T_Sinc, T_Sinc_DGLG, 358.4, hit, 1, 0
31, 1, T_Sinc, T_Sinc_URRR, 397.9, hit, 2, 0
32, 1, T_Sinc, T_Sinc_URRR, 321.4, hit, 2, 0
33, 1, T_Scon, T_Scon_UGLG, 356.7, hit, 1, 0
34, 1, T_Scon, T_Scon_UGLG, 432.2, hit, 1, 0
35, 1, T_Scon, T_Scon_UGLG, 403.6, hit, 1, 0
36, 1, T_Sinc, T_Sinc_URRR, 367.0, hit, 2, 0
37, 1, T_Scon, T_Scon_DRRR, 538.2, hit, 2, 0
38, 1, T_Scon, T_Scon_DRRR, 533.7, hit, 2, 0
39, 1, T_Scon, T_Scon_DRRR, 353.0, hit, 2, 0
40, 1, T_Scon, T_Scon_DRRR, 344.5, hit, 2, 0
41, 1, T_Scon, T_Scon_DRRR, 364.0, hit, 2, 0
42, 1, T_Sinc, T_Sinc_DGLG, 411.4, hit, 1, 0
43, 1, T_Scon, T_Scon_DRRR, 342.8, hit, 2, 0
44, 1, T_Scon, T_Scon_UGLG, 374.3, hit, 1, 0
45, 1, T_Sinc, T_Sinc_URRR, 361.8, hit, 2, 0
46, 1, T_Scon, T_Scon_DRRR, 381.1, hit, 2, 0
47, 1, T_Scon, T_Scon_UGLG, 820.6, hit, 1, 2
48, 1, T_Scon, T_Scon_DRRR, 344.1, hit, 2, 0
49, 1, T_Scon, T_Scon_UGLG, 403.4, hit, 1, 0
50, 1, T_Scon, T_Scon_DRRR, 378.9, hit, 2, 0
51, 1, T_Scon, T_Scon_UGLG, 310.4, hit, 1, 0
52, 1, T_Scon, T_Scon_UGLG, 349.8, hit, 1, 0
53, 1, T_Sinc, T_Sinc_DGLG, 425.2, hit, 1, 0
54, 1, T_Scon, T_Scon_DRRR, 308.7, hit, 2, 0
55, 1, T_Scon, T_Scon_DRRR, 352.0, hit, 2, 0
56, 1, T_Scon, T_Scon_UGLG, 251.5, hit, 1, 0
57, 1, T_Scon, T_Scon_UGLG, 639.0, hit, 1, 0
58, 1, T_Scon, T_Scon_UGLG, 414.4, incorrect, 2, 1
59, 1, T_Scon, T_Scon_UGLG, 409.8, hit, 1, 0
60, 1, T_Scon, T_Scon_DRRR, 357.3, hit, 2, 0
61, 1, T_Sinc, T_Sinc_DGLG, 416.7, hit, 1, 0
62, 1, T_Sinc, T_Sinc_URRR, 452.1, hit, 2, 0
63, 1, T_Sinc, T_Sinc_DGLG, 431.6, hit, 1, 0
64, 1, T_Scon, T_Scon_DRRR, 379.0, hit, 2, 0
65, 1, T_Scon, T_Scon_UGLG, 430.5, hit, 1, 0
66, 1, T_Sinc, T_Sinc_DGLG, 393.9, hit, 1, 0
67, 1, T_Sinc, T_Sinc_DGLG, 393.3, hit, 1, 0
68, 1, T_Scon, T_Scon_DRRR, 420.8, hit, 2, 0
69, 1, T_Scon, T_Scon_UGLG, 340.1, hit, 1, 0
70, 1, T_Scon, T_Scon_UGLG, 431.6, incorrect, 2, 1
71, 1, T_Scon, T_Scon_DRRR, 379.1, hit, 2, 0
72, 1, T_Sinc, T_Sinc_DGLG, 306.5, hit, 1, 0
73, 1, T_Scon, T_Scon_DRRR, 541.7, hit, 2, 0
74, 1, T_Scon, T_Scon_DRRR, 325.1, hit, 2, 0
75, 1, T_Sinc, T_Sinc_URRR, 396.6, hit, 2, 0
76, 1, T_Scon, T_Scon_UGLG, 447.9, incorrect, 2, 1
77, 1, T_Scon, T_Scon_UGLG, 519.4, hit, 1, 0
78, 1, T_Scon, T_Scon_UGLG, 382.9, hit, 1, 0
79, 1, T_Sinc, T_Sinc_DGLG, 442.2, hit, 1, 0
80, 1, T_Scon, T_Scon_DRRR, 421.7, hit, 2, 0
81, 1, T_Scon, T_Scon_UGLG, 513.2, hit, 1, 0
82, 1, T_Scon, T_Scon_UGLG, 332.5, hit, 1, 0
83, 1, T_Scon, T_Scon_DRRR, 392.0, hit, 2, 0
84, 1, T_Scon, T_Scon_UGLG, 723.5, hit, 1, 0
85, 1, T_Scon, T_Scon_UGLG, 454.9, hit, 1, 0
86, 1, T_Sinc, T_Sinc_URRR, 386.3, hit, 2, 0
87, 1, T_Scon, T_Scon_UGLG, 485.8, hit, 1, 0
88, 1, T_Scon, T_Scon_DRRR, 369.2, hit, 2, 0
89, 1, T_Sinc, T_Sinc_DGLG, 432.6, incorrect, 2, 1
90, 1, T_Scon, T_Scon_DRRR, 572.1, hit, 2, 0
91, 1, T_Scon, T_Scon_DRRR, 923.5, hit, 2, 2
92, 1, T_Scon, T_Scon_UGLG, 346.9, hit, 1, 0
93, 1, T_Scon, T_Scon_UGLG, 366.4, hit, 1, 0
94, 1, T_Sinc, T_Sinc_URRR, 441.8, hit, 2, 0
95, 1, T_Scon, T_Scon_UGLG, 493.3, hit, 1, 0
96, 1, T_Scon, T_Scon_DRRR, 676.7, hit, 2, 0
97, 1, T_Scon, T_Scon_UGLG, 520.1, hit, 1, 0
98, 1, T_Sinc, T_Sinc_URRR, 503.6, incorrect, 1, 1
99, 1, T_Scon, T_Scon_UGLG, 447.0, hit, 1, 0
100, 1, T_Scon, T_Scon_DRRR, 586.4, hit, 2, 0
101, 1, T_Scon, T_Scon_DRRR, 733.9, hit, 2, 2
102, 1, T_Sinc, T_Sinc_URRR, 381.3, hit, 2, 0
103, 1, T_Scon, T_Scon_DRRR, 456.7, hit, 2, 0
104, 1, T_Sinc, T_Sinc_DGLG, 380.2, hit, 1, 0
105, 1, T_Scon, T_Scon_DRRR, 479.6, hit, 2, 0
106, 1, T_Scon, T_Scon_UGLG, 475.0, hit, 1, 0
107, 1, T_Sinc, T_Sinc_DGLG, 510.5, hit, 1, 0
108, 1, T_Scon, T_Scon_DRRR, 570.0, hit, 2, 0
109, 1, T_Scon, T_Scon_UGLG, 433.1, hit, 1, 0
110, 1, T_Scon, T_Scon_UGLG, 456.5, hit, 1, 0
111, 1, T_Scon, T_Scon_UGLG, 320.0, hit, 1, 0
112, 1, T_Sinc, T_Sinc_DGLG, 387.3, hit, 1, 0
113, 1, T_Scon, T_Scon_DRRR, 346.8, hit, 2, 0
114, 1, T_Scon, T_Scon_DRRR, 538.3, incorrect, 1, 1
115, 1, T_Scon, T_Scon_DRRR, 421.7, hit, 2, 0
116, 1, T_Sinc, T_Sinc_URRR, 425.1, hit, 2, 0
117, 1, T_Scon, T_Scon_DRRR, 452.6, hit, 2, 0
118, 1, T_Sinc, T_Sinc_DGLG, 332.1, hit, 1, 0
119, 1, T_Scon, T_Scon_DRRR, 459.4, hit, 2, 0
120, 1, T_Scon, T_Scon_UGLG, 498.9, hit, 1, 0
121, 1, T_Sinc, T_Sinc_URRR, 390.4, hit, 2, 0
122, 1, T_Scon, T_Scon_DRRR, 521.7, hit, 2, 0
123, 1, T_Scon, T_Scon_UGLG, 389.2, hit, 1, 0
124, 1, T_Sinc, T_Sinc_URRR, 304.7, hit, 2, 0
125, 1, T_Scon, T_Scon_UGLG, 420.1, hit, 1, 0
126, 1, T_Scon, T_Scon_DRRR, 383.5, hit, 2, 0
127, 1, T_Scon, T_Scon_DRRR, 511.0, hit, 2, 0
128, 1, T_Scon, T_Scon_UGLG, 330.4, hit, 1, 0
129, 1, T_Sinc, T_Sinc_URRR, 417.8, incorrect, 1, 1
130, 1, T_Scon, T_Scon_DRRR, 405.3, hit, 2, 0
131, 1, T_Scon, T_Scon_UGLG, 300.7, hit, 1, 0
132, 1, T_Scon, T_Scon_DRRR, 300.1, hit, 2, 0
133, 1, T_Scon, T_Scon_UGLG, 407.6, hit, 1, 0
134, 1, T_Scon, T_Scon_UGLG, 646.9, hit, 1, 0
135, 1, T_Scon, T_Scon_UGLG, 306.4, hit, 1, 0
136, 1, T_Scon, T_Scon_DRRR, 289.9, hit, 2, 0
137, 1, T_Scon, T_Scon_DRRR, 337.3, hit, 2, 0
138, 1, T_Sinc, T_Sinc_DGLG, 372.8, hit, 1, 0
139, 1, T_Scon, T_Scon_DRRR, 344.2, hit, 2, 0
140, 1, T_Scon, T_Scon_UGLG, 299.6, hit, 1, 0
141, 1, T_Scon, T_Scon_DRRR, 279.1, hit, 2, 0
142, 1, T_Sinc, T_Sinc_URRR, 334.5, hit, 2, 0
143, 1, T_Scon, T_Scon_DRRR, 385.9, hit, 2, 0
144, 1, T_Scon, T_Scon_UGLG, 341.4, hit, 1, 0
145, 2, T_Scon, T_Scon_UGLG, 518.1, hit, 1, 0
146, 2, T_Sinc, T_Sinc_URRR, 345.6, hit, 2, 0
147, 2, T_Scon, T_Scon_UGLG, 381.0, incorrect, 2, 1
148, 2, T_Scon, T_Scon_DRRR, 544.4, hit, 2, 0
149, 2, T_Sinc, T_Sinc_DGLG, 419.9, hit, 1, 0
150, 2, T_Scon, T_Scon_UGLG, 535.3, hit, 1, 0
151, 2, T_Scon, T_Scon_UGLG, 550.7, hit, 1, 0
152, 2, T_Scon, T_Scon_DRRR, 490.2, hit, 2, 0
153, 2, T_Scon, T_Scon_UGLG, 469.7, hit, 1, 0
154, 2, T_Sinc, T_Sinc_DGLG, 361.0, hit, 1, 0
155, 2, T_Scon, T_Scon_DRRR, 396.5, hit, 2, 0
156, 2, T_Sinc, T_Sinc_DGLG, 556.0, hit, 1, 0
157, 2, T_Scon, T_Scon_DRRR, 547.3, hit, 2, 0
158, 2, T_Scon, T_Scon_DRRR, 346.8, hit, 2, 0
159, 2, T_Scon, T_Scon_UGLG, 694.3, hit, 1, 0
160, 2, T_Scon, T_Scon_DRRR, 401.6, hit, 2, 0
161, 2, T_Scon, T_Scon_DRRR, 525.1, hit, 2, 0
162, 2, T_Scon, T_Scon_DRRR, 436.6, hit, 2, 0
163, 2, T_Sinc, T_Sinc_DGLG, 372.0, hit, 1, 0
164, 2, T_Scon, T_Scon_DRRR, 431.4, hit, 2, 0
165, 2, T_Scon, T_Scon_DRRR, 546.9, hit, 2, 0
166, 2, T_Sinc, T_Sinc_URRR, 486.2, hit, 2, 0
167, 2, T_Scon, T_Scon_UGLG, 453.7, hit, 1, 0
168, 2, T_Scon, T_Scon_DRRR, 397.2, hit, 2, 0
169, 2, T_Scon, T_Scon_DRRR, 356.6, hit, 2, 0
170, 2, T_Sinc, T_Sinc_URRR, 392.0, hit, 2, 0
171, 2, T_Scon, T_Scon_DRRR, 455.4, hit, 2, 0
172, 2, T_Scon, T_Scon_UGLG, 374.9, hit, 1, 0
173, 2, T_Sinc, T_Sinc_URRR, 434.4, hit, 2, 0
174, 2, T_Sinc, T_Sinc_URRR, 365.8, hit, 2, 0
175, 2, T_Scon, T_Scon_UGLG, 369.2, hit, 1, 0
176, 2, T_Scon, T_Scon_UGLG, 484.7, hit, 1, 0
177, 2, T_Scon, T_Scon_UGLG, 312.1, hit, 1, 0
178, 2, T_Sinc, T_Sinc_DGLG, 315.5, incorrect, 2, 1
179, 2, T_Scon, T_Scon_UGLG, 419.0, hit, 1, 0
180, 2, T_Scon, T_Scon_DRRR, 398.4, hit, 2, 0
181, 2, T_Scon, T_Scon_DRRR, 561.5, hit, 2, 0
182, 2, T_Scon, T_Scon_UGLG, 345.0, hit, 1, 0
183, 2, T_Scon, T_Scon_DRRR, 336.4, hit, 2, 0
184, 2, T_Sinc, T_Sinc_DGLG, 311.8, hit, 1, 0
185, 2, T_Scon, T_Scon_UGLG, 451.3, hit, 1, 0
186, 2, T_Scon, T_Scon_UGLG, 346.8, hit, 1, 0
187, 2, T_Sinc, T_Sinc_DGLG, 334.1, hit, 1, 0
188, 2, T_Sinc, T_Sinc_DGLG, 341.6, hit, 1, 0
189, 2, T_Scon, T_Scon_DRRR, 577.1, hit, 2, 0
190, 2, T_Scon, T_Scon_UGLG, 368.4, hit, 1, 0
191, 2, T_Sinc, T_Sinc_URRR, 451.9, hit, 2, 0
192, 2, T_Sinc, T_Sinc_URRR, 375.3, hit, 2, 0
193, 2, T_Scon, T_Scon_DRRR, 418.8, hit, 2, 0
194, 2, T_Scon, T_Scon_UGLG, 386.2, hit, 1, 0
195, 2, T_Scon, T_Scon_UGLG, 389.6, hit, 1, 0
196, 2, T_Sinc, T_Sinc_DGLG, 393.1, hit, 1, 0
197, 2, T_Scon, T_Scon_DRRR, 580.5, hit, 2, 0
198, 2, T_Scon, T_Scon_DRRR, 404.0, hit, 2, 0
199, 2, T_Scon, T_Scon_UGLG, 439.4, hit, 1, 0
200, 2, T_Scon, T_Scon_UGLG, 402.8, incorrect, 2, 1
201, 2, T_Scon, T_Scon_UGLG, 422.3, hit, 1, 0
202, 2, T_Scon, T_Scon_DRRR, 433.7, hit, 2, 0
203, 2, T_Sinc, T_Sinc_URRR, 341.3, hit, 2, 0
204, 2, T_Scon, T_Scon_DRRR, 560.6, hit, 2, 0
205, 2, T_Scon, T_Scon_DRRR, 428.0, hit, 2, 0
206, 2, T_Sinc, T_Sinc_DGLG, 391.5, hit, 1, 0
207, 2, T_Scon, T_Scon_DRRR, 422.9, hit, 2, 0
208, 2, T_Scon, T_Scon_DRRR, 538.3, hit, 2, 0
209, 2, T_Scon, T_Scon_DRRR, 397.8, hit, 2, 0
210, 2, T_Sinc, T_Sinc_DGLG, 697.2, hit, 1, 2
211, 2, T_Scon, T_Scon_UGLG, 364.6, hit, 1, 0
212, 2, T_Scon, T_Scon_UGLG, 588.1, hit, 1, 0
213, 2, T_Scon, T_Scon_UGLG, 783.5, hit, 1, 2
214, 2, T_Scon, T_Scon_UGLG, 370.9, hit, 1, 0
215, 2, T_Scon, T_Scon_DRRR, 406.4, hit, 2, 0
216, 2, T_Scon, T_Scon_UGLG, 445.8, hit, 1, 0
217, 2, T_Sinc, T_Sinc_URRR, 477.1, hit, 2, 0
218, 2, T_Sinc, T_Sinc_URRR, 336.4, hit, 2, 0
219, 2, T_Scon, T_Scon_UGLG, 351.9, incorrect, 2, 1
220, 2, T_Scon, T_Scon_UGLG, 399.3, hit, 1, 0
221, 2, T_Scon, T_Scon_DRRR, 330.8, incorrect, 1, 1
222, 2, T_Scon, T_Scon_UGLG, 562.2, hit, 1, 0
223, 2, T_Sinc, T_Sinc_URRR, 369.6, hit, 2, 0
224, 2, T_Scon, T_Scon_DRRR, 473.1, hit, 2, 0
225, 2, T_Scon, T_Scon_DRRR, 452.5, hit, 2, 0
226, 2, T_Sinc, T_Sinc_DGLG, 399.9, hit, 1, 0
227, 2, T_Scon, T_Scon_UGLG, 371.3, hit, 1, 0
228, 2, T_Scon, T_Scon_DRRR, 718.8, hit, 2, 0
229, 2, T_Scon, T_Scon_UGLG, 458.2, hit, 1, 0
230, 2, T_Scon, T_Scon_UGLG, 409.7, hit, 1, 0
231, 2, T_Sinc, T_Sinc_URRR, 505.1, hit, 2, 0
232, 2, T_Scon, T_Scon_DRRR, 588.6, hit, 2, 0
233, 2, T_Scon, T_Scon_DRRR, 400.0, hit, 2, 0
234, 2, T_Scon, T_Scon_DRRR, 427.4, hit, 2, 0
235, 2, T_Scon, T_Scon_UGLG, 374.9, hit, 1, 0
236, 2, T_Sinc, T_Sinc_URRR, 422.3, hit, 2, 0
237, 2, T_Scon, T_Scon_DRRR, 573.7, hit, 2, 0
238, 2, T_Scon, T_Scon_UGLG, 505.2, hit, 1, 0
239, 2, T_Scon, T_Scon_DRRR, 340.7, hit, 2, 0
240, 2, T_Sinc, T_Sinc_DGLG, 464.0, hit, 1, 0
241, 2, T_Scon, T_Scon_UGLG, 403.5, hit, 1, 0
242, 2, T_Sinc, T_Sinc_URRR, 383.0, hit, 2, 0
243, 2, T_Scon, T_Scon_UGLG, 470.4, hit, 1, 0
244, 2, T_Scon, T_Scon_UGLG, 573.8, hit, 1, 0
245, 2, T_Scon, T_Scon_UGLG, 401.3, hit, 1, 0
246, 2, T_Scon, T_Scon_DRRR, 340.7, hit, 2, 0
247, 2, T_Scon, T_Scon_UGLG, 388.1, hit, 1, 0
248, 2, T_Sinc, T_Sinc_DGLG, 463.6, hit, 1, 0
249, 2, T_Scon, T_Scon_DRRR, 555.0, hit, 2, 0
250, 2, T_Scon, T_Scon_UGLG, 462.4, incorrect, 2, 1
251, 2, T_Scon, T_Scon_DRRR, 625.9, hit, 2, 0
252, 2, T_Scon, T_Scon_UGLG, 333.4, hit, 1, 0
253, 2, T_Scon, T_Scon_DRRR, 492.5, hit, 2, 0
254, 2, T_Scon, T_Scon_UGLG, 463.9, hit, 1, 0
255, 2, T_Scon, T_Scon_DRRR, 419.4, hit, 2, 0
256, 2, T_Sinc, T_Sinc_URRR, 374.8, hit, 2, 0
257, 2, T_Scon, T_Scon_DRRR, 338.2, hit, 2, 0
258, 2, T_Scon, T_Scon_DRRR, 405.7, hit, 2, 0
259, 2, T_Scon, T_Scon_UGLG, 413.0, hit, 1, 0
260, 2, T_Scon, T_Scon_DRRR, 420.5, hit, 2, 0
261, 2, T_Sinc, T_Sinc_URRR, 352.0, hit, 2, 0
262, 2, T_Scon, T_Scon_DRRR, 443.4, hit, 2, 0
263, 2, T_Scon, T_Scon_UGLG, 470.8, hit, 1, 0
264, 2, T_Scon, T_Scon_UGLG, 578.3, hit, 1, 0
265, 2, T_Scon, T_Scon_UGLG, 533.7, hit, 1, 0
266, 2, T_Scon, T_Scon_DRRR, 517.1, hit, 2, 0
267, 2, T_Scon, T_Scon_DRRR, 616.6, hit, 2, 0
268, 2, T_Sinc, T_Sinc_DGLG, 476.0, hit, 1, 0
269, 2, T_Sinc, T_Sinc_DGLG, 415.5, hit, 1, 0
270, 2, T_Scon, T_Scon_DRRR, 502.8, hit, 2, 0
271, 2, T_Scon, T_Scon_UGLG, 442.3, hit, 1, 0
272, 2, T_Scon, T_Scon_UGLG, 401.8, hit, 1, 0
273, 2, T_Sinc, T_Sinc_DGLG, 457.1, hit, 1, 0
274, 2, T_Scon, T_Scon_UGLG, 428.6, hit, 1, 0
275, 2, T_Scon, T_Scon_DRRR, 420.1, hit, 2, 0
276, 2, T_Scon, T_Scon_DRRR, 435.4, hit, 2, 0
277, 2, T_Scon, T_Scon_DRRR, 350.9, hit, 2, 0
278, 2, T_Scon, T_Scon_UGLG, 450.4, hit, 1, 0
279, 2, T_Scon, T_Scon_UGLG, 353.7, hit, 1, 0
280, 2, T_Scon, T_Scon_UGLG, 445.2, hit, 1, 0
281, 2, T_Scon, T_Scon_DRRR, 468.7, hit, 2, 0
282, 2, T_Sinc, T_Sinc_URRR, 352.1, hit, 2, 0
283, 2, T_Scon, T_Scon_DRRR, 475.5, hit, 2, 0
284, 2, T_Scon, T_Scon_UGLG, 406.9, hit, 1, 0
285, 2, T_Scon, T_Scon_DRRR, 562.4, hit, 2, 0
286, 2, T_Sinc, T_Sinc_URRR, 365.9, hit, 2, 0
287, 2, T_Sinc, T_Sinc_DGLG, 313.3, hit, 1, 0
288, 2, T_Scon, T_Scon_UGLG, 592.7, hit, 1, 0
289, 3, T_Scon, T_Scon_DRRR, 468.9, hit, 2, 0
290, 3, T_Scon, T_Scon_DRRR, 344.3, hit, 2, 0
291, 3, T_Scon, T_Scon_UGLG, 471.8, hit, 1, 0
292, 3, T_Scon, T_Scon_DRRR, 291.1, hit, 2, 0
293, 3, T_Scon, T_Scon_DRRR, 366.6, hit, 2, 0
294, 3, T_Sinc, T_Sinc_URRR, 642.1, hit, 2, 0
295, 3, T_Scon, T_Scon_UGLG, 477.5, hit, 1, 0
296, 3, T_Sinc, T_Sinc_URRR, 424.9, hit, 2, 0
297, 3, T_Scon, T_Scon_DRRR, 424.4, hit, 2, 0
298, 3, T_Sinc, T_Sinc_URRR, 323.8, hit, 2, 0
299, 3, T_Scon, T_Scon_UGLG, 519.2, hit, 1, 0
300, 3, T_Scon, T_Scon_DRRR, 342.7, hit, 2, 0
301, 3, T_Scon, T_Scon_DRRR, 338.1, hit, 2, 0
302, 3, T_Scon, T_Scon_UGLG, 333.5, incorrect, 2, 1
303, 3, T_Scon, T_Scon_DRRR, 421.0, hit, 2, 0
304, 3, T_Scon, T_Scon_UGLG, 568.5, hit, 1, 0
305, 3, T_Scon, T_Scon_UGLG, 431.8, hit, 1, 0
306, 3, T_Sinc, T_Sinc_DGLG, 515.3, hit, 1, 0
307, 3, T_Scon, T_Scon_UGLG, 518.7, hit, 1, 0
308, 3, T_Scon, T_Scon_UGLG, 378.2, hit, 1, 0
309, 3, T_Scon, T_Scon_UGLG, 777.6, hit, 1, 2
310, 3, T_Scon, T_Scon_DRRR, 1105.0, hit, 2, 2
311, 3, T_Scon, T_Scon_DRRR, 452.5, hit, 2, 0
312, 3, T_Scon, T_Scon_DRRR, 500.0, hit, 2, 0
313, 3, T_Sinc, T_Sinc_URRR, 415.3, hit, 2, 0
314, 3, T_Sinc, T_Sinc_DGLG, 446.8, hit, 1, 0
315, 3, T_Scon, T_Scon_UGLG, 502.3, hit, 1, 0
316, 3, T_Scon, T_Scon_UGLG, 393.6, hit, 1, 0
317, 3, T_Scon, T_Scon_DRRR, 581.1, hit, 2, 0
318, 3, T_Scon, T_Scon_UGLG, 444.5, hit, 1, 0
319, 3, T_Sinc, T_Sinc_DGLG, 483.9, incorrect, 2, 1
320, 3, T_Sinc, T_Sinc_URRR, 339.4, hit, 2, 0
321, 3, T_Scon, T_Scon_DRRR, 622.8, hit, 2, 0
322, 3, T_Sinc, T_Sinc_URRR, 714.3, hit, 2, 2
323, 3, T_Scon, T_Scon_UGLG, 429.7, hit, 1, 0
324, 3, T_Scon, T_Scon_DRRR, 581.1, hit, 2, 0
325, 3, T_Scon, T_Scon_UGLG, 516.3, incorrect, 2, 1
326, 3, T_Sinc, T_Sinc_URRR, 451.7, hit, 2, 0
327, 3, T_Scon, T_Scon_DRRR, 411.1, hit, 2, 0
328, 3, T_Scon, T_Scon_DRRR, 590.6, hit, 2, 0
329, 3, T_Scon, T_Scon_DRRR, 458.0, hit, 2, 0
330, 3, T_Sinc, T_Sinc_URRR, 333.5, hit, 2, 0
331, 3, T_Scon, T_Scon_DRRR, 576.9, hit, 2, 0
332, 3, T_Scon, T_Scon_UGLG, 308.3, hit, 1, 0
333, 3, T_Scon, T_Scon_DRRR, 411.8, hit, 2, 0
334, 3, T_Scon, T_Scon_UGLG, 487.2, hit, 1, 0
335, 3, T_Sinc, T_Sinc_DGLG, 426.7, hit, 1, 0
336, 3, T_Sinc, T_Sinc_URRR, 362.1, incorrect, 1, 1
337, 3, T_Sinc, T_Sinc_URRR, 473.5, hit, 2, 0
338, 3, T_Scon, T_Scon_DRRR, 461.0, hit, 2, 0
339, 3, T_Scon, T_Scon_DRRR, 716.4, hit, 2, 0
340, 3, T_Scon, T_Scon_DRRR, 447.8, hit, 2, 0
341, 3, T_Sinc, T_Sinc_URRR, 351.3, hit, 2, 0
342, 3, T_Scon, T_Scon_UGLG, 402.7, hit, 1, 0
343, 3, T_Scon, T_Scon_UGLG, 554.1, hit, 1, 0
344, 3, T_Sinc, T_Sinc_DGLG, 525.6, hit, 1, 0
345, 3, T_Scon, T_Scon_DRRR, 457.0, hit, 2, 0
346, 3, T_Scon, T_Scon_UGLG, 444.4, hit, 1, 0
347, 3, T_Scon, T_Scon_UGLG, 375.9, hit, 1, 0
348, 3, T_Scon, T_Scon_DRRR, 443.4, hit, 2, 0
349, 3, T_Scon, T_Scon_DRRR, 366.7, hit, 2, 0
350, 3, T_Scon, T_Scon_UGLG, 618.2, hit, 1, 0
351, 3, T_Scon, T_Scon_DRRR, 453.6, hit, 2, 0
352, 3, T_Scon, T_Scon_UGLG, 385.0, hit, 1, 0
353, 3, T_Scon, T_Scon_UGLG, 476.5, hit, 1, 0
354, 3, T_Sinc, T_Sinc_DGLG, 352.0, hit, 1, 0
355, 3, T_Scon, T_Scon_UGLG, 403.4, hit, 1, 0
356, 3, T_Sinc, T_Sinc_DGLG, 390.8, hit, 1, 0
357, 3, T_Scon, T_Scon_UGLG, 466.3, hit, 1, 0
358, 3, T_Scon, T_Scon_DRRR, 853.8, hit, 2, 2
359, 3, T_Sinc, T_Sinc_DGLG, 441.1, hit, 1, 0
360, 3, T_Scon, T_Scon_UGLG, 464.6, hit, 1, 0
361, 3, T_Scon, T_Scon_UGLG, 511.8, hit, 1, 0
362, 3, T_Scon, T_Scon_DRRR, 427.1, hit, 2, 0
363, 3, T_Scon, T_Scon_UGLG, 370.6, hit, 1, 0
364, 3, T_Scon, T_Scon_UGLG, 342.1, hit, 1, 0
365, 3, T_Sinc, T_Sinc_URRR, 449.5, hit, 2, 0
366, 3, T_Scon, T_Scon_UGLG, 424.9, hit, 1, 0
367, 3, T_Scon, T_Scon_DRRR, 548.4, incorrect, 1, 1
368, 3, T_Sinc, T_Sinc_DGLG, 983.7, hit, 1, 2
369, 3, T_Scon, T_Scon_UGLG, 591.2, hit, 1, 0
370, 3, T_Scon, T_Scon_UGLG, 558.7, hit, 1, 0
371, 3, T_Scon, T_Scon_DRRR, 530.1, hit, 2, 0
372, 3, T_Scon, T_Scon_UGLG, 505.5, hit, 1, 0
373, 3, T_Scon, T_Scon_UGLG, 397.0, hit, 1, 0
374, 3, T_Scon, T_Scon_UGLG, 328.4, hit, 1, 0
375, 3, T_Sinc, T_Sinc_URRR, 399.9, hit, 2, 0
376, 3, T_Scon, T_Scon_UGLG, 399.3, hit, 1, 0
377, 3, T_Scon, T_Scon_UGLG, 386.7, hit, 1, 0
378, 3, T_Scon, T_Scon_DRRR, 462.2, hit, 2, 0
379, 3, T_Scon, T_Scon_DRRR, 661.6, hit, 2, 0
380, 3, T_Scon, T_Scon_UGLG, 385.0, hit, 1, 0
381, 3, T_Sinc, T_Sinc_URRR, 572.5, hit, 2, 0
382, 3, T_Scon, T_Scon_DRRR, 435.9, hit, 2, 0
383, 3, T_Scon, T_Scon_UGLG, 479.3, hit, 1, 0
384, 3, T_Sinc, T_Sinc_DGLG, 562.8, hit, 1, 0
385, 3, T_Scon, T_Scon_DRRR, 430.2, hit, 2, 0
386, 3, T_Scon, T_Scon_UGLG, 569.6, hit, 1, 0
387, 3, T_Sinc, T_Sinc_DGLG, 533.1, hit, 1, 0
388, 3, T_Scon, T_Scon_DRRR, 352.6, hit, 2, 0
389, 3, T_Scon, T_Scon_UGLG, 347.9, hit, 1, 0
390, 3, T_Sinc, T_Sinc_DGLG, 431.4, hit, 1, 0
391, 3, T_Scon, T_Scon_UGLG, 798.9, hit, 1, 2
392, 3, T_Scon, T_Scon_DRRR, 334.2, hit, 2, 0
393, 3, T_Sinc, T_Sinc_DGLG, 429.7, hit, 1, 0
394, 3, T_Sinc, T_Sinc_DGLG, 409.2, hit, 1, 0
395, 3, T_Scon, T_Scon_DRRR, 436.6, hit, 2, 0
396, 3, T_Sinc, T_Sinc_DGLG, 380.0, hit, 1, 0
397, 3, T_Scon, T_Scon_DRRR, 431.2, hit, 2, 0
398, 3, T_Scon, T_Scon_DRRR, 522.6, hit, 2, 0
399, 3, T_Scon, T_Scon_UGLG, 402.0, hit, 1, 0
400, 3, T_Scon, T_Scon_DRRR, 349.5, hit, 2, 0
401, 3, T_Scon, T_Scon_DRRR, 416.9, hit, 2, 0
402, 3, T_Scon, T_Scon_UGLG, 332.3, hit, 1, 0
403, 3, T_Scon, T_Scon_DRRR, 303.8, hit, 2, 0
404, 3, T_Scon, T_Scon_DRRR, 363.2, hit, 2, 0
405, 3, T_Scon, T_Scon_UGLG, 450.7, hit, 1, 0
406, 3, T_Scon, T_Scon_UGLG, 446.1, hit, 1, 0
407, 3, T_Sinc, T_Sinc_URRR, 505.5, hit, 2, 0
408, 3, T_Scon, T_Scon_DRRR, 392.9, hit, 2, 0
409, 3, T_Scon, T_Scon_UGLG, 432.4, hit, 1, 0
410, 3, T_Sinc, T_Sinc_DGLG, 555.8, hit, 1, 0
411, 3, T_Scon, T_Scon_DRRR, 367.3, hit, 2, 0
412, 3, T_Scon, T_Scon_DRRR, 290.8, hit, 2, 0
413, 3, T_Sinc, T_Sinc_URRR, 462.1, hit, 2, 0
414, 3, T_Scon, T_Scon_UGLG, 425.6, hit, 1, 0
415, 3, T_Scon, T_Scon_UGLG, 333.0, hit, 1, 0
416, 3, T_Scon, T_Scon_DRRR, 392.5, hit, 2, 0
417, 3, T_Scon, T_Scon_UGLG, 451.9, hit, 1, 0
418, 3, T_Sinc, T_Sinc_URRR, 375.4, incorrect, 1, 1
419, 3, T_Sinc, T_Sinc_URRR, 462.8, hit, 2, 0
420, 3, T_Scon, T_Scon_DRRR, 506.2, hit, 2, 0
421, 3, T_Scon, T_Scon_DRRR, 421.7, hit, 2, 0
422, 3, T_Sinc, T_Sinc_DGLG, 417.1, hit, 1, 0
423, 3, T_Scon, T_Scon_UGLG, 448.5, incorrect, 2, 1
424, 3, T_Scon, T_Scon_UGLG, 532.0, hit, 1, 0
425, 3, T_Scon, T_Scon_UGLG, 551.4, hit, 1, 0
426, 3, T_Scon, T_Scon_DRRR, 426.8, hit, 2, 0
427, 3, T_Scon, T_Scon_DRRR, 454.3, hit, 2, 0
428, 3, T_Scon, T_Scon_DRRR, 373.7, hit, 2, 0
429, 3, T_Scon, T_Scon_DRRR, 325.2, hit, 2, 0
430, 3, T_Scon, T_Scon_DRRR, 356.6, hit, 2, 0
431, 3, T_Sinc, T_Sinc_DGLG, 412.1, hit, 1, 0
432, 3, T_Scon, T_Scon_UGLG, 403.5, hit, 1, 0
433, 4, T_Sinc, T_Sinc_DGLG, 464.0, incorrect, 2, 1
434, 4, T_Scon, T_Scon_UGLG, 311.5, hit, 1, 0
435, 4, T_Sinc, T_Sinc_DGLG, 938.8, hit, 1, 2
436, 4, T_Scon, T_Scon_UGLG, 390.3, hit, 1, 0
437, 4, T_Sinc, T_Sinc_URRR, 305.8, incorrect, 1, 1
438, 4, T_Sinc, T_Sinc_DGLG, 421.1, hit, 1, 0
439, 4, T_Scon, T_Scon_UGLG, 336.6, hit, 1, 0
440, 4, T_Scon, T_Scon_UGLG, 312.1, hit, 1, 0
441, 4, T_Scon, T_Scon_UGLG, 307.4, hit, 1, 0
442, 4, T_Scon, T_Scon_UGLG, 282.9, hit, 1, 0
443, 4, T_Sinc, T_Sinc_DGLG, 314.4, hit, 1, 0
444, 4, T_Sinc, T_Sinc_DGLG, 357.7, hit, 1, 0
445, 4, T_Scon, T_Scon_DRRR, 409.2, hit, 2, 0
446, 4, T_Sinc, T_Sinc_URRR, 440.6, hit, 2, 0
447, 4, T_Scon, T_Scon_UGLG, 380.1, hit, 1, 0
448, 4, T_Sinc, T_Sinc_URRR, 335.5, hit, 2, 0
449, 4, T_Sinc, T_Sinc_URRR, 331.0, hit, 2, 0
450, 4, T_Sinc, T_Sinc_URRR, 378.4, hit, 2, 0
451, 4, T_Sinc, T_Sinc_DGLG, 373.8, hit, 1, 0
452, 4, T_Sinc, T_Sinc_URRR, 501.3, hit, 2, 0
453, 4, T_Sinc, T_Sinc_DGLG, 416.7, hit, 1, 0
454, 4, T_Scon, T_Scon_UGLG, 560.1, hit, 1, 0
455, 4, T_Scon, T_Scon_DRRR, 383.6, hit, 2, 0
456, 4, T_Scon, T_Scon_UGLG, 479.0, hit, 1, 0
457, 4, T_Sinc, T_Sinc_DGLG, 942.4, hit, 1, 2
458, 4, T_Sinc, T_Sinc_URRR, 297.9, hit, 2, 0
459, 4, T_Sinc, T_Sinc_DGLG, 317.3, hit, 1, 0
460, 4, T_Sinc, T_Sinc_URRR, 380.8, hit, 2, 0
461, 4, T_Sinc, T_Sinc_URRR, 392.2, hit, 2, 0
462, 4, T_Sinc, T_Sinc_DGLG, 359.7, hit, 1, 0
463, 4, T_Sinc, T_Sinc_DGLG, 403.1, hit, 1, 0
464, 4, T_Sinc, T_Sinc_URRR, 462.5, hit, 2, 0
465, 4, T_Scon, T_Scon_DRRR, 505.9, hit, 2, 0
466, 4, T_Scon, T_Scon_DRRR, 349.4, hit, 2, 0
467, 4, T_Sinc, T_Sinc_URRR, 388.8, hit, 2, 0
468, 4, T_Sinc, T_Sinc_DGLG, 360.2, hit, 1, 0
469, 4, T_Sinc, T_Sinc_DGLG, 543.4, incorrect, 2, 1
470, 4, T_Sinc, T_Sinc_DGLG, 478.9, hit, 1, 0
471, 4, T_Sinc, T_Sinc_URRR, 386.2, hit, 2, 0
472, 4, T_Scon, T_Scon_UGLG, 381.7, hit, 1, 0
473, 4, T_Sinc, T_Sinc_DGLG, 377.2, hit, 1, 0
474, 4, T_Scon, T_Scon_UGLG, 388.6, hit, 1, 0
475, 4, T_Scon, T_Scon_UGLG, 304.0, hit, 1, 0
476, 4, T_Sinc, T_Sinc_URRR, 387.5, hit, 2, 0
477, 4, T_Sinc, T_Sinc_DGLG, 438.9, hit, 1, 0
478, 4, T_Scon, T_Scon_DRRR, 326.3, hit, 2, 0
479, 4, T_Sinc, T_Sinc_URRR, 301.8, hit, 2, 0
480, 4, T_Sinc, T_Sinc_URRR, 385.2, hit, 2, 0
481, 4, T_Sinc, T_Sinc_DGLG, 376.6, hit, 1, 0
482, 4, T_Sinc, T_Sinc_DGLG, 504.1, hit, 1, 0
483, 4, T_Scon, T_Scon_UGLG, 351.6, hit, 1, 0
484, 4, T_Sinc, T_Sinc_URRR, 306.9, hit, 2, 0
485, 4, T_Scon, T_Scon_DRRR, 554.4, hit, 2, 0
486, 4, T_Sinc, T_Sinc_URRR, 345.9, hit, 2, 0
487, 4, T_Sinc, T_Sinc_DGLG, 365.2, hit, 1, 0
488, 4, T_Sinc, T_Sinc_DGLG, 488.7, hit, 1, 0
489, 4, T_Sinc, T_Sinc_DGLG, 304.2, hit, 1, 0
490, 4, T_Sinc, T_Sinc_DGLG, 347.6, hit, 1, 0
491, 4, T_Sinc, T_Sinc_URRR, 387.0, hit, 2, 0
492, 4, T_Sinc, T_Sinc_URRR, 342.5, incorrect, 1, 1
493, 4, T_Scon, T_Scon_UGLG, 353.9, hit, 1, 0
494, 4, T_Sinc, T_Sinc_URRR, 565.3, hit, 2, 0
495, 4, T_Sinc, T_Sinc_DGLG, 536.7, hit, 1, 0
496, 4, T_Sinc, T_Sinc_URRR, 492.2, hit, 2, 0
497, 4, T_Scon, T_Scon_DRRR, 551.6, hit, 2, 0
498, 4, T_Sinc, T_Sinc_URRR, 419.0, hit, 2, 0
499, 4, T_Sinc, T_Sinc_URRR, 374.5, hit, 2, 0
500, 4, T_Sinc, T_Sinc_DGLG, 570.0, hit, 1, 0
501, 4, T_Sinc, T_Sinc_URRR, 381.4, hit, 2, 0
502, 4, T_Sinc, T_Sinc_DGLG, 512.8, hit, 1, 0
503, 4, T_Sinc, T_Sinc_DGLG, 516.3, hit, 1, 0
504, 4, T_Sinc, T_Sinc_DGLG, 371.7, hit, 1, 0
505, 4, T_Sinc, T_Sinc_URRR, 390.9, hit, 2, 0
506, 4, T_Sinc, T_Sinc_DGLG, 338.3, hit, 1, 0
507, 4, T_Sinc, T_Sinc_DGLG, 333.7, hit, 1, 0
508, 4, T_Sinc, T_Sinc_DGLG, 329.1, hit, 1, 0
509, 4, T_Sinc, T_Sinc_URRR, 452.6, hit, 2, 0
510, 4, T_Sinc, T_Sinc_URRR, 312.1, hit, 2, 0
511, 4, T_Scon, T_Scon_DRRR, 399.5, hit, 2, 0
512, 4, T_Sinc, T_Sinc_URRR, 282.9, hit, 2, 0
513, 4, T_Sinc, T_Sinc_DGLG, 350.4, incorrect, 2, 1
514, 4, T_Scon, T_Scon_DRRR, 325.7, hit, 2, 0
515, 4, T_Sinc, T_Sinc_URRR, 361.2, hit, 2, 0
516, 4, T_Scon, T_Scon_DRRR, 500.7, hit, 2, 0
517, 4, T_Sinc, T_Sinc_DGLG, 376.0, hit, 1, 0
518, 4, T_Sinc, T_Sinc_DGLG, 379.5, hit, 1, 0
519, 4, T_Scon, T_Scon_DRRR, 443.0, hit, 2, 0
520, 4, T_Sinc, T_Sinc_URRR, 374.4, hit, 2, 0
521, 4, T_Scon, T_Scon_DRRR, 285.8, hit, 2, 0
522, 4, T_Sinc, T_Sinc_URRR, 337.3, hit, 2, 0
523, 4, T_Sinc, T_Sinc_URRR, 284.7, hit, 2, 0
524, 4, T_Sinc, T_Sinc_DGLG, 428.1, hit, 1, 0
525, 4, T_Sinc, T_Sinc_DGLG, 407.6, hit, 1, 0
526, 4, T_Sinc, T_Sinc_URRR, 355.0, incorrect, 1, 1
527, 4, T_Sinc, T_Sinc_URRR, 438.4, hit, 2, 0
528, 4, T_Sinc, T_Sinc_URRR, 313.9, hit, 2, 0
529, 4, T_Sinc, T_Sinc_DGLG, 409.3, hit, 1, 0
530, 4, T_Sinc, T_Sinc_DGLG, 548.7, hit, 1, 0
531, 4, T_Sinc, T_Sinc_DGLG, 340.2, hit, 1, 0
532, 4, T_Scon, T_Scon_DRRR, 463.6, hit, 2, 0
533, 4, T_Scon, T_Scon_UGLG, 475.0, hit, 1, 0
534, 4, T_Sinc, T_Sinc_URRR, 430.5, hit, 2, 0
535, 4, T_Sinc, T_Sinc_URRR, 377.9, hit, 2, 0
536, 4, T_Sinc, T_Sinc_URRR, 477.4, hit, 2, 0
537, 4, T_Sinc, T_Sinc_DGLG, 360.8, hit, 1, 0
538, 4, T_Scon, T_Scon_DRRR, 452.2, hit, 2, 0
539, 4, T_Sinc, T_Sinc_DGLG, 443.7, hit, 1, 0
540, 4, T_Sinc, T_Sinc_DGLG, 507.1, hit, 1, 0
541, 4, T_Sinc, T_Sinc_URRR, 374.4, hit, 2, 0
542, 4, T_Sinc, T_Sinc_DGLG, 413.7, hit, 1, 0
543, 4, T_Sinc, T_Sinc_URRR, 465.2, hit, 2, 0
544, 4, T_Sinc, T_Sinc_URRR, 444.6, incorrect, 1, 1
545, 4, T_Sinc, T_Sinc_URRR, 456.0, hit, 2, 0
546, 4, T_Sinc, T_Sinc_URRR, 307.5, hit, 2, 0
547, 4, T_Sinc, T_Sinc_URRR, 310.9, hit, 2, 0
548, 4, T_Scon, T_Scon_UGLG, 406.4, hit, 1, 0
549, 4, T_Sinc, T_Sinc_URRR, 361.8, hit, 2, 0
550, 4, T_Sinc, T_Sinc_URRR, 341.2, hit, 2, 0
551, 4, T_Sinc, T_Sinc_DGLG, 288.6, hit, 1, 0
552, 4, T_Sinc, T_Sinc_URRR, 304.1, incorrect, 1, 1
553, 4, T_Sinc, T_Sinc_DGLG, 435.6, hit, 1, 0
554, 4, T_Sinc, T_Sinc_URRR, 258.9, hit, 2, 0
555, 4, T_Sinc, T_Sinc_DGLG, 334.4, hit, 1, 0
556, 4, T_Sinc, T_Sinc_URRR, 297.9, hit, 2, 0
557, 4, T_Sinc, T_Sinc_DGLG, 373.2, hit, 1, 0
558, 4, T_Sinc, T_Sinc_URRR, 288.7, hit, 2, 0
559, 4, T_Sinc, T_Sinc_URRR, 340.2, hit, 2, 0
560, 4, T_Scon, T_Scon_UGLG, 671.5, hit, 1, 0
561, 4, T_Sinc, T_Sinc_DGLG, 463.0, hit, 1, 0
562, 4, T_Sinc, T_Sinc_DGLG, 438.5, hit, 1, 0
563, 4, T_Sinc, T_Sinc_DGLG, 809.8, hit, 1, 2
564, 4, T_Sinc, T_Sinc_DGLG, 365.3, hit, 1, 0
565, 4, T_Scon, T_Scon_UGLG, 424.8, hit, 1, 0
566, 4, T_Sinc, T_Sinc_URRR, 388.2, hit, 2, 0
567, 4, T_Sinc, T_Sinc_DGLG, 551.6, hit, 1, 0
568, 4, T_Sinc, T_Sinc_DGLG, 499.1, hit, 1, 0
569, 4, T_Sinc, T_Sinc_DGLG, 750.5, hit, 1, 2
570, 4, T_Sinc, T_Sinc_DGLG, 381.9, hit, 1, 0
571, 4, T_Scon, T_Scon_DRRR, 381.4, hit, 2, 0
572, 4, T_Sinc, T_Sinc_URRR, 432.8, hit, 2, 0
573, 4, T_Scon, T_Scon_DRRR, 388.3, hit, 2, 0
574, 4, T_Sinc, T_Sinc_URRR, 315.7, hit, 2, 0
575, 4, T_Scon, T_Scon_DRRR, 387.1, hit, 2, 0
576, 4, T_Scon, T_Scon_DRRR, 442.6, hit, 2, 0
577, 5, T_Scon, T_Scon_DRRR, 435.5, hit, 2, 0
578, 5, T_Sinc, T_Sinc_URRR, 351.0, hit, 2, 0
579, 5, T_Sinc, T_Sinc_DGLG, 378.3, hit, 1, 0
580, 5, T_Sinc, T_Sinc_DGLG, 321.8, hit, 1, 0
581, 5, T_Sinc, T_Sinc_DGLG, 357.3, hit, 1, 0
582, 5, T_Sinc, T_Sinc_DGLG, 376.6, hit, 1, 0
583, 5, T_Sinc, T_Sinc_DGLG, 340.1, hit, 1, 0
584, 5, T_Sinc, T_Sinc_URRR, 427.6, hit, 2, 0
585, 5, T_Sinc, T_Sinc_DGLG, 430.9, hit, 1, 0
586, 5, T_Sinc, T_Sinc_DGLG, 354.4, hit, 1, 0
587, 5, T_Sinc, T_Sinc_DGLG, 301.8, hit, 1, 0
588, 5, T_Sinc, T_Sinc_DGLG, 481.3, incorrect, 2, 1
589, 5, T_Sinc, T_Sinc_URRR, 384.7, hit, 2, 0
590, 5, T_Scon, T_Scon_UGLG, 748.1, hit, 1, 2
591, 5, T_Scon, T_Scon_DRRR, 543.6, hit, 2, 0
592, 5, T_Sinc, T_Sinc_URRR, 395.0, hit, 2, 0
593, 5, T_Sinc, T_Sinc_URRR, 282.4, hit, 2, 0
594, 5, T_Sinc, T_Sinc_URRR, 289.9, hit, 2, 0
595, 5, T_Sinc, T_Sinc_DGLG, 381.3, hit, 1, 0
596, 5, T_Sinc, T_Sinc_URRR, 336.8, hit, 2, 0
597, 5, T_Sinc, T_Sinc_DGLG, 452.2, hit, 1, 0
598, 5, T_Sinc, T_Sinc_DGLG, 383.7, incorrect, 2, 1
599, 5, T_Sinc, T_Sinc_URRR, 439.0, hit, 2, 0
600, 5, T_Sinc, T_Sinc_URRR, 350.5, hit, 2, 0
601, 5, T_Scon, T_Scon_DRRR, 382.0, hit, 2, 0
602, 5, T_Sinc, T_Sinc_DGLG, 289.4, hit, 1, 0
603, 5, T_Scon, T_Scon_DRRR, 448.8, hit, 2, 0
604, 5, T_Sinc, T_Sinc_DGLG, 460.3, hit, 1, 0
605, 5, T_Sinc, T_Sinc_DGLG, 319.7, hit, 1, 0
606, 5, T_Sinc, T_Sinc_DGLG, 363.1, hit, 1, 0
607, 5, T_Sinc, T_Sinc_URRR, 310.6, hit, 2, 0
608, 5, T_Sinc, T_Sinc_DGLG, 398.1, hit, 1, 0
609, 5, T_Scon, T_Scon_DRRR, 397.4, hit, 2, 0
610, 5, T_Scon, T_Scon_UGLG, 484.9, hit, 1, 0
611, 5, T_Sinc, T_Sinc_DGLG, 352.4, hit, 1, 0
612, 5, T_Sinc, T_Sinc_URRR, 339.7, hit, 2, 0
613, 5, T_Sinc, T_Sinc_DGLG, 362.9, hit, 1, 0
614, 5, T_Sinc, T_Sinc_URRR, 510.4, hit, 2, 0
615, 5, T_Sinc, T_Sinc_URRR, 337.8, hit, 2, 0
616, 5, T_Scon, T_Scon_UGLG, 413.2, hit, 1, 0
617, 5, T_Sinc, T_Sinc_URRR, 504.7, hit, 2, 0
618, 5, T_Scon, T_Scon_DRRR, 316.1, incorrect, 1, 1
619, 5, T_Sinc, T_Sinc_URRR, 347.5, hit, 2, 0
620, 5, T_Scon, T_Scon_UGLG, 311.0, incorrect, 2, 1
621, 5, T_Scon, T_Scon_UGLG, 414.5, hit, 1, 0
622, 5, T_Sinc, T_Sinc_URRR, 385.8, hit, 2, 0
623, 5, T_Sinc, T_Sinc_URRR, 377.3, hit, 2, 0
624, 5, T_Sinc, T_Sinc_URRR, 376.7, hit, 2, 0
625, 5, T_Sinc, T_Sinc_DGLG, 356.1, hit, 1, 0
626, 5, T_Sinc, T_Sinc_DGLG, 339.6, hit, 1, 0
627, 5, T_Sinc, T_Sinc_DGLG, 331.1, hit, 1, 0
628, 5, T_Scon, T_Scon_UGLG, 350.4, hit, 1, 0
629, 5, T_Scon, T_Scon_UGLG, 297.9, hit, 1, 0
630, 5, T_Sinc, T_Sinc_DGLG, 445.3, hit, 1, 0
631, 5, T_Sinc, T_Sinc_DGLG, 304.8, hit, 1, 0
632, 5, T_Sinc, T_Sinc_DGLG, 328.2, hit, 1, 0
633, 5, T_Sinc, T_Sinc_DGLG, 375.6, hit, 1, 0
634, 5, T_Sinc, T_Sinc_DGLG, 355.1, hit, 1, 0
635, 5, T_Sinc, T_Sinc_DGLG, 314.5, hit, 1, 0
636, 5, T_Scon, T_Scon_UGLG, 381.9, hit, 1, 0
637, 5, T_Scon, T_Scon_DRRR, 321.4, hit, 2, 0
638, 5, T_Scon, T_Scon_DRRR, 360.8, hit, 2, 0
639, 5, T_Sinc, T_Sinc_URRR, 428.3, hit, 2, 0
640, 5, T_Scon, T_Scon_UGLG, 311.7, hit, 1, 0
641, 5, T_Sinc, T_Sinc_URRR, 355.2, incorrect, 1, 1
642, 5, T_Scon, T_Scon_UGLG, 562.5, hit, 1, 0
643, 5, T_Sinc, T_Sinc_URRR, 438.0, incorrect, 1, 1
644, 5, T_Sinc, T_Sinc_URRR, 313.5, hit, 2, 0
645, 5, T_Sinc, T_Sinc_URRR, 264.8, hit, 2, 0
646, 5, T_Sinc, T_Sinc_DGLG, 404.3, hit, 1, 0
647, 5, T_Sinc, T_Sinc_DGLG, 383.8, hit, 1, 0
648, 5, T_Sinc, T_Sinc_URRR, 355.2, hit, 2, 0
649, 5, T_Sinc, T_Sinc_URRR, 554.4, hit, 2, 0
650, 5, T_Scon, T_Scon_UGLG, 421.8, hit, 1, 0
651, 5, T_Sinc, T_Sinc_URRR, 529.2, hit, 2, 0
652, 5, T_Sinc, T_Sinc_URRR, 372.6, hit, 2, 0
653, 5, T_Sinc, T_Sinc_DGLG, 384.1, hit, 1, 0
654, 5, T_Sinc, T_Sinc_URRR, 411.5, hit, 2, 0
655, 5, T_Scon, T_Scon_UGLG, 878.9, hit, 1, 2
656, 5, T_Sinc, T_Sinc_URRR, 438.4, hit, 2, 0
657, 5, T_Scon, T_Scon_DRRR, 473.8, hit, 2, 0
658, 5, T_Sinc, T_Sinc_DGLG, 497.2, hit, 1, 0
659, 5, T_Sinc, T_Sinc_DGLG, 552.7, hit, 1, 0
660, 5, T_Sinc, T_Sinc_DGLG, 260.1, hit, 1, 0
661, 5, T_Sinc, T_Sinc_URRR, 327.6, hit, 2, 0
662, 5, T_Sinc, T_Sinc_URRR, 303.0, hit, 2, 0
663, 5, T_Sinc, T_Sinc_URRR, 322.5, hit, 2, 0
664, 5, T_Sinc, T_Sinc_URRR, 313.9, hit, 2, 0
665, 5, T_Sinc, T_Sinc_URRR, 333.4, hit, 2, 0
666, 5, T_Sinc, T_Sinc_URRR, 312.8, hit, 2, 0
667, 5, T_Scon, T_Scon_DRRR, 460.2, hit, 2, 0
668, 5, T_Sinc, T_Sinc_URRR, 295.6, hit, 2, 0
669, 5, T_Sinc, T_Sinc_DGLG, 359.1, hit, 1, 0
670, 5, T_Sinc, T_Sinc_DGLG, 298.5, hit, 1, 0
671, 5, T_Scon, T_Scon_DRRR, 506.0, hit, 2, 0
672, 5, T_Sinc, T_Sinc_DGLG, 381.4, hit, 1, 0
673, 5, T_Scon, T_Scon_UGLG, 536.8, hit, 1, 0
674, 5, T_Scon, T_Scon_UGLG, 380.3, hit, 1, 0
675, 5, T_Sinc, T_Sinc_URRR, 387.7, hit, 2, 0
676, 5, T_Sinc, T_Sinc_URRR, 311.1, hit, 2, 0
677, 5, T_Sinc, T_Sinc_URRR, 322.6, hit, 2, 0
678, 5, T_Sinc, T_Sinc_URRR, 302.0, hit, 2, 0
679, 5, T_Sinc, T_Sinc_URRR, 285.4, hit, 2, 0
680, 5, T_Scon, T_Scon_UGLG, 412.9, hit, 1, 0
681, 5, T_Scon, T_Scon_DRRR, 544.4, incorrect, 1, 1
682, 5, T_Sinc, T_Sinc_DGLG, 427.7, hit, 1, 0
683, 5, T_Sinc, T_Sinc_URRR, 455.2, hit, 2, 0
684, 5, T_Sinc, T_Sinc_DGLG, 398.6, hit, 1, 0
685, 5, T_Sinc, T_Sinc_DGLG, 441.8, hit, 1, 0
686, 5, T_Sinc, T_Sinc_DGLG, 341.2, hit, 1, 0
687, 5, T_Scon, T_Scon_DRRR, 384.6, hit, 2, 0
688, 5, T_Sinc, T_Sinc_URRR, 380.1, hit, 2, 0
689, 5, T_Sinc, T_Sinc_URRR, 343.5, hit, 2, 0
690, 5, T_Sinc, T_Sinc_URRR, 314.9, hit, 2, 0
691, 5, T_Sinc, T_Sinc_URRR, 354.4, hit, 2, 0
692, 5, T_Sinc, T_Sinc_DGLG, 425.8, hit, 1, 0
693, 5, T_Sinc, T_Sinc_URRR, 309.2, hit, 2, 0
694, 5, T_Sinc, T_Sinc_DGLG, 356.7, hit, 1, 0
695, 5, T_Sinc, T_Sinc_DGLG, 332.1, hit, 1, 0
696, 5, T_Sinc, T_Sinc_DGLG, 391.6, hit, 1, 0
697, 5, T_Sinc, T_Sinc_URRR, 471.0, hit, 2, 0
698, 5, T_Sinc, T_Sinc_URRR, 354.5, hit, 2, 0
699, 5, T_Sinc, T_Sinc_URRR, 305.8, hit, 2, 0
700, 5, T_Sinc, T_Sinc_URRR, 269.3, hit, 2, 0
701, 5, T_Sinc, T_Sinc_URRR, 328.8, hit, 2, 0
702, 5, T_Sinc, T_Sinc_DGLG, 280.2, hit, 1, 0
703, 5, T_Sinc, T_Sinc_DGLG, 331.6, incorrect, 2, 1
704, 5, T_Scon, T_Scon_UGLG, 319.1, hit, 1, 0
705, 5, T_Scon, T_Scon_DRRR, 354.5, hit, 2, 0
706, 5, T_Sinc, T_Sinc_DGLG, 429.9, hit, 1, 0
707, 5, T_Scon, T_Scon_UGLG, 473.4, hit, 1, 0
708, 5, T_Sinc, T_Sinc_URRR, 356.8, hit, 2, 0
709, 5, T_Sinc, T_Sinc_URRR, 404.2, hit, 2, 0
710, 5, T_Scon, T_Scon_UGLG, 471.7, hit, 1, 0
711, 5, T_Scon, T_Scon_DRRR, 307.2, hit, 2, 0
712, 5, T_Scon, T_Scon_DRRR, 398.6, hit, 2, 0
713, 5, T_Sinc, T_Sinc_DGLG, 378.0, hit, 1, 0
714, 5, T_Scon, T_Scon_DRRR, 329.5, incorrect, 1, 1
715, 5, T_Sinc, T_Sinc_DGLG, 384.9, incorrect, 2, 1
716, 5, T_Sinc, T_Sinc_DGLG, 404.3, hit, 1, 0
717, 5, T_Sinc, T_Sinc_DGLG, 311.8, hit, 1, 0
718, 5, T_Sinc, T_Sinc_DGLG, 291.2, hit, 1, 0
719, 5, T_Sinc, T_Sinc_DGLG, 350.7, hit, 1, 0
720, 5, T_Scon, T_Scon_DRRR, 430.1, hit, 2, 0
721, 6, T_Sinc, T_Sinc_DGLG, 447.9, incorrect, 2, 1
722, 6, T_Sinc, T_Sinc_DGLG, 407.1, hit, 1, 0
723, 6, T_Sinc, T_Sinc_URRR, 374.7, hit, 2, 0
724, 6, T_Sinc, T_Sinc_DGLG, 338.1, hit, 1, 0
725, 6, T_Sinc, T_Sinc_URRR, 341.5, hit, 2, 0
726, 6, T_Sinc, T_Sinc_DGLG, 409.0, hit, 1, 0
727, 6, T_Scon, T_Scon_UGLG, 356.5, hit, 1, 0
728, 6, T_Sinc, T_Sinc_DGLG, 295.9, hit, 1, 0
729, 6, T_Sinc, T_Sinc_DGLG, 335.3, hit, 1, 0
730, 6, T_Sinc, T_Sinc_URRR, 370.7, hit, 2, 0
731, 6, T_Sinc, T_Sinc_DGLG, 434.2, hit, 1, 0
732, 6, T_Scon, T_Scon_DRRR, 321.6, incorrect, 1, 1
733, 6, T_Sinc, T_Sinc_DGLG, 553.0, hit, 1, 0
734, 6, T_Sinc, T_Sinc_DGLG, 340.5, hit, 1, 0
735, 6, T_Sinc, T_Sinc_DGLG, 319.9, hit, 1, 0
736, 6, T_Scon, T_Scon_UGLG, 427.3, hit, 1, 0
737, 6, T_Sinc, T_Sinc_URRR, 462.8, hit, 2, 0
738, 6, T_Sinc, T_Sinc_URRR, 334.2, hit, 2, 0
739, 6, T_Scon, T_Scon_DRRR, 433.7, hit, 2, 0
740, 6, T_Sinc, T_Sinc_URRR, 333.1, hit, 2, 0
741, 6, T_Sinc, T_Sinc_URRR, 288.6, hit, 2, 0
742, 6, T_Sinc, T_Sinc_URRR, 312.0, hit, 2, 0
743, 6, T_Sinc, T_Sinc_DGLG, 415.4, hit, 1, 0
744, 6, T_Sinc, T_Sinc_DGLG, 686.9, hit, 1, 2
745, 6, T_Scon, T_Scon_DRRR, 442.3, hit, 2, 0
746, 6, T_Sinc, T_Sinc_URRR, 317.7, hit, 2, 0
747, 6, T_Sinc, T_Sinc_DGLG, 409.1, hit, 1, 0
748, 6, T_Sinc, T_Sinc_URRR, 292.6, hit, 2, 0
749, 6, T_Sinc, T_Sinc_URRR, 392.1, hit, 2, 0
750, 6, T_Sinc, T_Sinc_URRR, 355.4, hit, 2, 0
751, 6, T_Sinc, T_Sinc_URRR, 506.9, hit, 2, 0
752, 6, T_Sinc, T_Sinc_URRR, 314.4, hit, 2, 0
753, 6, T_Scon, T_Scon_DRRR, 413.7, hit, 2, 0
754, 6, T_Scon, T_Scon_UGLG, 425.2, hit, 1, 0
755, 6, T_Scon, T_Scon_DRRR, 516.7, hit, 2, 0
756, 6, T_Scon, T_Scon_UGLG, 444.1, hit, 1, 0
757, 6, T_Scon, T_Scon_UGLG, 391.3, hit, 1, 0
758, 6, T_Sinc, T_Sinc_URRR, 330.7, hit, 2, 0
759, 6, T_Sinc, T_Sinc_URRR, 334.2, hit, 2, 0
760, 6, T_Sinc, T_Sinc_DGLG, 345.5, hit, 1, 0
761, 6, T_Sinc, T_Sinc_URRR, 409.0, hit, 2, 0
762, 6, T_Scon, T_Scon_DRRR, 392.4, hit, 2, 0
763, 6, T_Sinc, T_Sinc_URRR, 315.8, hit, 2, 0
764, 6, T_Scon, T_Scon_UGLG, 395.3, incorrect, 2, 1
765, 6, T_Scon, T_Scon_DRRR, 398.7, hit, 2, 0
766, 6, T_Sinc, T_Sinc_DGLG, 546.1, hit, 1, 0
767, 6, T_Sinc, T_Sinc_DGLG, 381.6, hit, 1, 0
768, 6, T_Sinc, T_Sinc_URRR, 473.1, hit, 2, 0
769, 6, T_Scon, T_Scon_UGLG, 476.5, incorrect, 2, 1
770, 6, T_Sinc, T_Sinc_URRR, 391.9, hit, 2, 0
771, 6, T_Sinc, T_Sinc_DGLG, 371.4, hit, 1, 0
772, 6, T_Scon, T_Scon_DRRR, 430.8, hit, 2, 0
773, 6, T_Scon, T_Scon_UGLG, 474.2, hit, 1, 0
774, 6, T_Sinc, T_Sinc_URRR, 485.7, hit, 2, 0
775, 6, T_Sinc, T_Sinc_URRR, 405.1, hit, 2, 0
776, 6, T_Sinc, T_Sinc_DGLG, 360.5, hit, 1, 0
777, 6, T_Sinc, T_Sinc_URRR, 408.0, hit, 2, 0
778, 6, T_Sinc, T_Sinc_URRR, 371.4, hit, 2, 0
779, 6, T_Sinc, T_Sinc_DGLG, 362.9, hit, 1, 0
780, 6, T_Sinc, T_Sinc_DGLG, 494.3, hit, 1, 0
781, 6, T_Sinc, T_Sinc_DGLG, 333.7, hit, 1, 0
782, 6, T_Sinc, T_Sinc_DGLG, 361.2, hit, 1, 0
783, 6, T_Sinc, T_Sinc_DGLG, 540.6, hit, 1, 0
784, 6, T_Sinc, T_Sinc_URRR, 344.1, hit, 2, 0
785, 6, T_Sinc, T_Sinc_DGLG, 519.5, hit, 1, 0
786, 6, T_Sinc, T_Sinc_DGLG, 438.9, incorrect, 2, 1
787, 6, T_Scon, T_Scon_DRRR, 418.4, incorrect, 1, 1
788, 6, T_Sinc, T_Sinc_DGLG, 469.8, hit, 1, 0
789, 6, T_Scon, T_Scon_UGLG, 425.3, hit, 1, 0
790, 6, T_Sinc, T_Sinc_DGLG, 360.6, hit, 1, 0
791, 6, T_Scon, T_Scon_DRRR, 516.1, hit, 2, 0
792, 6, T_Sinc, T_Sinc_DGLG, 471.6, hit, 1, 0
793, 6, T_Scon, T_Scon_UGLG, 382.8, hit, 1, 0
794, 6, T_Sinc, T_Sinc_DGLG, 338.1, hit, 1, 0
795, 6, T_Sinc, T_Sinc_DGLG, 349.6, hit, 1, 0
796, 6, T_Sinc, T_Sinc_URRR, 405.0, hit, 2, 0
797, 6, T_Sinc, T_Sinc_DGLG, 524.4, hit, 1, 0
798, 6, T_Sinc, T_Sinc_DGLG, 431.9, hit, 1, 0
799, 6, T_Scon, T_Scon_DRRR, 443.3, hit, 2, 0
800, 6, T_Sinc, T_Sinc_DGLG, 482.7, hit, 1, 0
801, 6, T_Sinc, T_Sinc_DGLG, 390.2, hit, 1, 0
802, 6, T_Sinc, T_Sinc_URRR, 569.7, hit, 2, 0
803, 6, T_Sinc, T_Sinc_URRR, 365.1, hit, 2, 0
804, 6, T_Sinc, T_Sinc_DGLG, 444.5, hit, 1, 0
805, 6, T_Sinc, T_Sinc_URRR, 512.0, hit, 2, 0
806, 6, T_Scon, T_Scon_DRRR, 399.4, hit, 2, 0
807, 6, T_Sinc, T_Sinc_URRR, 498.8, hit, 2, 0
808, 6, T_Sinc, T_Sinc_URRR, 338.3, hit, 2, 0
809, 6, T_Sinc, T_Sinc_DGLG, 337.7, hit, 1, 0
810, 6, T_Scon, T_Scon_DRRR, 373.1, incorrect, 1, 1
811, 6, T_Scon, T_Scon_UGLG, 356.6, hit, 1, 0
812, 6, T_Sinc, T_Sinc_DGLG, 396.0, incorrect, 2, 1
813, 6, T_Scon, T_Scon_DRRR, 607.4, hit, 2, 0
814, 6, T_Sinc, T_Sinc_DGLG, 822.9, hit, 1, 2
815, 6, T_Scon, T_Scon_DRRR, 354.3, hit, 2, 0
816, 6, T_Sinc, T_Sinc_DGLG, 529.7, hit, 1, 0
817, 6, T_Sinc, T_Sinc_URRR, 353.2, hit, 2, 0
818, 6, T_Sinc, T_Sinc_URRR, 372.6, hit, 2, 0
819, 6, T_Sinc, T_Sinc_URRR, 352.1, hit, 2, 0
820, 6, T_Sinc, T_Sinc_DGLG, 775.5, hit, 1, 2
821, 6, T_Sinc, T_Sinc_URRR, 466.9, hit, 2, 0
822, 6, T_Scon, T_Scon_UGLG, 402.4, incorrect, 2, 1
823, 6, T_Sinc, T_Sinc_URRR, 477.8, hit, 2, 0
824, 6, T_Sinc, T_Sinc_DGLG, 337.2, hit, 1, 0
825, 6, T_Sinc, T_Sinc_URRR, 460.6, hit, 2, 0
826, 6, T_Sinc, T_Sinc_DGLG, 324.1, hit, 1, 0
827, 6, T_Scon, T_Scon_UGLG, 535.5, hit, 1, 0
828, 6, T_Sinc, T_Sinc_DGLG, 363.0, hit, 1, 0
829, 6, T_Sinc, T_Sinc_DGLG, 402.2, hit, 1, 0
830, 6, T_Sinc, T_Sinc_DGLG, 309.5, hit, 1, 0
831, 6, T_Sinc, T_Sinc_URRR, 541.0, hit, 2, 0
832, 6, T_Scon, T_Scon_DRRR, 416.5, hit, 2, 0
833, 6, T_Sinc, T_Sinc_URRR, 347.8, hit, 2, 0
834, 6, T_Scon, T_Scon_DRRR, 431.3, incorrect, 1, 1
835, 6, T_Sinc, T_Sinc_URRR, 722.7, hit, 2, 2
836, 6, T_Sinc, T_Sinc_URRR, 370.1, hit, 2, 0
837, 6, T_Sinc, T_Sinc_DGLG, 401.6, hit, 1, 0
838, 6, T_Sinc, T_Sinc_URRR, 565.1, hit, 2, 0
839, 6, T_Scon, T_Scon_UGLG, 712.5, hit, 1, 0
840, 6, T_Scon, T_Scon_UGLG, 499.9, hit, 1, 0
841, 6, T_Sinc, T_Sinc_DGLG, 463.4, hit, 1, 0
842, 6, T_Sinc, T_Sinc_URRR, 414.8, hit, 2, 0
843, 6, T_Sinc, T_Sinc_DGLG, 422.2, hit, 1, 0
844, 6, T_Scon, T_Scon_DRRR, 521.7, hit, 2, 0
845, 6, T_Sinc, T_Sinc_URRR, 477.1, hit, 2, 0
846, 6, T_Sinc, T_Sinc_URRR, 384.5, hit, 2, 0
847, 6, T_Sinc, T_Sinc_DGLG, 340.0, hit, 1, 0
848, 6, T_Sinc, T_Sinc_URRR, 431.4, hit, 2, 0
849, 6, T_Sinc, T_Sinc_DGLG, 314.9, hit, 1, 0
850, 6, T_Sinc, T_Sinc_URRR, 258.3, hit, 2, 0
851, 6, T_Sinc, T_Sinc_URRR, 341.7, incorrect, 1, 1
852, 6, T_Sinc, T_Sinc_URRR, 497.2, hit, 2, 0
853, 6, T_Sinc, T_Sinc_DGLG, 564.6, hit, 1, 0
854, 6, T_Sinc, T_Sinc_URRR, 440.0, hit, 2, 0
855, 6, T_Scon, T_Scon_UGLG, 383.5, hit, 1, 0
856, 6, T_Sinc, T_Sinc_DGLG, 406.9, hit, 1, 0
857, 6, T_Sinc, T_Sinc_URRR, 266.4, hit, 2, 0
858, 6, T_Scon, T_Scon_UGLG, 509.8, hit, 1, 0
859, 6, T_Sinc, T_Sinc_DGLG, 465.2, hit, 1, 0
860, 6, T_Scon, T_Scon_UGLG, 412.6, hit, 1, 0
861, 6, T_Sinc, T_Sinc_URRR, 296.1, hit, 2, 0
862, 6, T_Sinc, T_Sinc_URRR, 263.5, hit, 2, 0
863, 6, T_Sinc, T_Sinc_URRR, 330.9, hit, 2, 0
864, 6, T_Sinc, T_Sinc_DGLG, 390.4, hit, 1, 0
865, 7, T_Scon, T_Scon_UGLG, 528.9, hit, 1, 0
866, 7, T_Scon, T_Scon_UGLG, 416.3, hit, 1, 0
867, 7, T_Scon, T_Scon_DRRR, 539.8, hit, 2, 0
868, 7, T_Sinc, T_Sinc_DGLG, 379.2, hit, 1, 0
869, 7, T_Scon, T_Scon_DRRR, 490.6, hit, 2, 0
870, 7, T_Sinc, T_Sinc_DGLG, 450.1, hit, 1, 0
871, 7, T_Sinc, T_Sinc_URRR, 365.5, hit, 2, 0
872, 7, T_Scon, T_Scon_DRRR, 440.9, hit, 2, 0
873, 7, T_Scon, T_Scon_UGLG, 588.4, hit, 1, 0
874, 7, T_Scon, T_Scon_UGLG, 423.8, hit, 1, 0
875, 7, T_Scon, T_Scon_DRRR, 339.2, hit, 2, 0
876, 7, T_Scon, T_Scon_UGLG, 430.6, hit, 1, 0
877, 7, T_Scon, T_Scon_DRRR, 414.1, hit, 2, 0
878, 7, T_Scon, T_Scon_DRRR, 353.5, hit, 2, 0
879, 7, T_Scon, T_Scon_UGLG, 397.0, hit, 1, 0
880, 7, T_Scon, T_Scon_UGLG, 360.4, hit, 1, 0
881, 7, T_Scon, T_Scon_DRRR, 423.8, hit, 2, 0
882, 7, T_Scon, T_Scon_UGLG, 547.2, hit, 1, 0
883, 7, T_Scon, T_Scon_DRRR, 358.7, hit, 2, 0
884, 7, T_Sinc, T_Sinc_URRR, 518.2, hit, 2, 0
885, 7, T_Scon, T_Scon_UGLG, 393.6, hit, 1, 0
886, 7, T_Scon, T_Scon_UGLG, 469.0, hit, 1, 0
887, 7, T_Scon, T_Scon_DRRR, 432.4, hit, 2, 0
888, 7, T_Sinc, T_Sinc_DGLG, 444.0, hit, 1, 0
889, 7, T_Scon, T_Scon_UGLG, 507.3, hit, 1, 0
890, 7, T_Scon, T_Scon_UGLG, 406.8, incorrect, 2, 1
891, 7, T_Scon, T_Scon_UGLG, 502.3, hit, 1, 0
892, 7, T_Scon, T_Scon_UGLG, 413.6, hit, 1, 0
893, 7, T_Sinc, T_Sinc_URRR, 401.1, hit, 2, 0
894, 7, T_Scon, T_Scon_DRRR, 536.6, hit, 2, 0
895, 7, T_Scon, T_Scon_DRRR, 427.9, hit, 2, 0
896, 7, T_Sinc, T_Sinc_DGLG, 471.4, hit, 1, 0
897, 7, T_Scon, T_Scon_DRRR, 430.9, hit, 2, 0
898, 7, T_Scon, T_Scon_DRRR, 738.2, hit, 2, 2
899, 7, T_Scon, T_Scon_DRRR, 373.7, hit, 2, 0
900, 7, T_Scon, T_Scon_UGLG, 389.1, hit, 1, 0
901, 7, T_Scon, T_Scon_DRRR, 548.3, hit, 2, 0
902, 7, T_Sinc, T_Sinc_URRR, 479.7, hit, 2, 0
903, 7, T_Scon, T_Scon_UGLG, 387.2, hit, 1, 0
904, 7, T_Scon, T_Scon_DRRR, 458.6, hit, 2, 0
905, 7, T_Scon, T_Scon_UGLG, 462.0, hit, 1, 0
906, 7, T_Scon, T_Scon_UGLG, 521.5, hit, 1, 0
907, 7, T_Sinc, T_Sinc_DGLG, 308.9, hit, 1, 0
908, 7, T_Sinc, T_Sinc_URRR, 352.4, hit, 2, 0
909, 7, T_Scon, T_Scon_DRRR, 471.8, hit, 2, 0
910, 7, T_Scon, T_Scon_DRRR, 291.2, hit, 2, 0
911, 7, T_Sinc, T_Sinc_URRR, 318.7, incorrect, 1, 1
912, 7, T_Scon, T_Scon_DRRR, 358.1, hit, 2, 0
913, 7, T_Sinc, T_Sinc_URRR, 281.5, hit, 2, 0
914, 7, T_Scon, T_Scon_DRRR, 353.0, hit, 2, 0
915, 7, T_Scon, T_Scon_UGLG, 356.4, incorrect, 2, 1
916, 7, T_Sinc, T_Sinc_DGLG, 455.9, hit, 1, 0
917, 7, T_Scon, T_Scon_DRRR, 403.3, hit, 2, 0
918, 7, T_Sinc, T_Sinc_URRR, 458.7, hit, 2, 0
919, 7, T_Scon, T_Scon_UGLG, 438.2, hit, 1, 0
920, 7, T_Scon, T_Scon_UGLG, 521.6, hit, 1, 0
921, 7, T_Scon, T_Scon_DRRR, 477.0, hit, 2, 0
922, 7, T_Scon, T_Scon_UGLG, 496.5, hit, 1, 0
923, 7, T_Scon, T_Scon_DRRR, 315.9, hit, 2, 0
924, 7, T_Sinc, T_Sinc_DGLG, 283.4, hit, 1, 0
925, 7, T_Scon, T_Scon_DRRR, 450.7, hit, 2, 0
926, 7, T_Scon, T_Scon_UGLG, 486.2, hit, 1, 0
927, 7, T_Scon, T_Scon_UGLG, 493.7, hit, 1, 0
928, 7, T_Scon, T_Scon_UGLG, 401.0, hit, 1, 0
929, 7, T_Scon, T_Scon_DRRR, 520.5, hit, 2, 0
930, 7, T_Sinc, T_Sinc_DGLG, 596.0, hit, 1, 0
931, 7, T_Sinc, T_Sinc_DGLG, 375.3, hit, 1, 0
932, 7, T_Scon, T_Scon_DRRR, 510.8, hit, 2, 0
933, 7, T_Scon, T_Scon_DRRR, 366.3, hit, 2, 0
934, 7, T_Scon, T_Scon_DRRR, 373.7, hit, 2, 0
935, 7, T_Scon, T_Scon_DRRR, 273.1, hit, 2, 0
936, 7, T_Scon, T_Scon_DRRR, 320.6, hit, 2, 0
937, 7, T_Scon, T_Scon_DRRR, 415.8, hit, 2, 0
938, 7, T_Sinc, T_Sinc_URRR, 363.1, hit, 2, 0
939, 7, T_Scon, T_Scon_UGLG, 358.6, hit, 1, 0
940, 7, T_Scon, T_Scon_DRRR, 314.1, hit, 2, 0
941, 7, T_Scon, T_Scon_DRRR, 401.4, hit, 2, 0
942, 7, T_Sinc, T_Sinc_URRR, 408.9, hit, 2, 0
943, 7, T_Scon, T_Scon_UGLG, 384.4, incorrect, 2, 1
944, 7, T_Scon, T_Scon_DRRR, 315.8, incorrect, 1, 1
945, 7, T_Sinc, T_Sinc_URRR, 451.2, hit, 2, 0
946, 7, T_Scon, T_Scon_DRRR, 414.7, hit, 2, 0
947, 7, T_Scon, T_Scon_UGLG, 426.1, hit, 1, 0
948, 7, T_Scon, T_Scon_UGLG, 469.5, hit, 1, 0
949, 7, T_Scon, T_Scon_UGLG, 416.9, hit, 1, 0
950, 7, T_Scon, T_Scon_DRRR, 372.4, hit, 2, 0
951, 7, T_Scon, T_Scon_UGLG, 463.8, hit, 1, 0
952, 7, T_Scon, T_Scon_UGLG, 339.3, hit, 1, 0
953, 7, T_Scon, T_Scon_UGLG, 374.7, hit, 1, 0
954, 7, T_Scon, T_Scon_DRRR, 282.2, hit, 2, 0
955, 7, T_Scon, T_Scon_UGLG, 501.6, hit, 1, 0
956, 7, T_Sinc, T_Sinc_DGLG, 617.0, hit, 1, 0
957, 7, T_Scon, T_Scon_DRRR, 308.5, hit, 2, 0
958, 7, T_Scon, T_Scon_UGLG, 271.9, hit, 1, 0
959, 7, T_Scon, T_Scon_DRRR, 283.3, hit, 2, 0
960, 7, T_Scon, T_Scon_DRRR, 382.8, hit, 2, 0
961, 7, T_Sinc, T_Sinc_URRR, 354.3, hit, 2, 0
962, 7, T_Scon, T_Scon_DRRR, 365.6, hit, 2, 0
963, 7, T_Scon, T_Scon_DRRR, 337.1, hit, 2, 0
964, 7, T_Scon, T_Scon_UGLG, 352.5, hit, 1, 0
965, 7, T_Scon, T_Scon_UGLG, 483.9, hit, 1, 0
966, 7, T_Scon, T_Scon_UGLG, 303.4, hit, 1, 0
967, 7, T_Scon, T_Scon_UGLG, 290.9, hit, 1, 0
968, 7, T_Scon, T_Scon_UGLG, 286.2, hit, 1, 0
969, 7, T_Scon, T_Scon_UGLG, 349.7, hit, 1, 0
970, 7, T_Scon, T_Scon_UGLG, 353.2, hit, 1, 0
971, 7, T_Scon, T_Scon_UGLG, 716.7, hit, 1, 0
972, 7, T_Sinc, T_Sinc_URRR, 544.0, hit, 2, 0
973, 7, T_Sinc, T_Sinc_URRR, 455.2, hit, 2, 0
974, 7, T_Scon, T_Scon_DRRR, 406.6, hit, 2, 0
975, 7, T_Scon, T_Scon_DRRR, 410.0, incorrect, 1, 1
976, 7, T_Sinc, T_Sinc_DGLG, 513.5, hit, 1, 0
977, 7, T_Scon, T_Scon_DRRR, 397.0, hit, 2, 0
978, 7, T_Scon, T_Scon_DRRR, 396.3, incorrect, 1, 1
979, 7, T_Scon, T_Scon_DRRR, 531.8, incorrect, 1, 1
980, 7, T_Scon, T_Scon_UGLG, 623.2, hit, 1, 0
981, 7, T_Scon, T_Scon_DRRR, 378.7, hit, 2, 0
982, 7, T_Sinc, T_Sinc_DGLG, 498.1, hit, 1, 0
983, 7, T_Sinc, T_Sinc_DGLG, 325.6, hit, 1, 0
984, 7, T_Sinc, T_Sinc_URRR, 352.9, hit, 2, 0
985, 7, T_Scon, T_Scon_UGLG, 388.4, hit, 1, 0
986, 7, T_Sinc, T_Sinc_DGLG, 407.8, hit, 1, 0
987, 7, T_Scon, T_Scon_DRRR, 411.2, hit, 2, 0
988, 7, T_Scon, T_Scon_UGLG, 450.7, hit, 1, 0
989, 7, T_Scon, T_Scon_UGLG, 550.2, hit, 1, 0
990, 7, T_Sinc, T_Sinc_URRR, 357.6, hit, 2, 0
991, 7, T_Scon, T_Scon_UGLG, 405.0, hit, 1, 0
992, 7, T_Scon, T_Scon_DRRR, 316.5, hit, 2, 0
993, 7, T_Sinc, T_Sinc_DGLG, 443.9, hit, 1, 0
994, 7, T_Sinc, T_Sinc_URRR, 431.3, hit, 2, 0
995, 7, T_Scon, T_Scon_UGLG, 482.8, hit, 1, 0
996, 7, T_Sinc, T_Sinc_URRR, 342.2, hit, 2, 0
997, 7, T_Scon, T_Scon_DRRR, 365.7, incorrect, 1, 1
998, 7, T_Sinc, T_Sinc_DGLG, 321.1, hit, 1, 0
999, 7, T_Scon, T_Scon_UGLG, 472.5, hit, 1, 0
1000, 7, T_Scon, T_Scon_DRRR, 304.0, hit, 2, 0
1001, 7, T_Sinc, T_Sinc_DGLG, 399.4, hit, 1, 0
1002, 7, T_Scon, T_Scon_DRRR, 390.8, hit, 2, 0
1003, 7, T_Scon, T_Scon_UGLG, 514.3, hit, 1, 0
1004, 7, T_Scon, T_Scon_UGLG, 381.7, hit, 1, 0
1005, 7, T_Scon, T_Scon_UGLG, 369.1, hit, 1, 0
1006, 7, T_Scon, T_Scon_DRRR, 352.6, hit, 2, 0
1007, 7, T_Scon, T_Scon_UGLG, 388.1, hit, 1, 0
1008, 7, T_Sinc, T_Sinc_DGLG, 463.4, hit, 1, 0
1009, 8, T_Sinc, T_Sinc_URRR, 445.2, hit, 2, 0
1010, 8, T_Scon, T_Scon_UGLG, 384.6, hit, 1, 0
1011, 8, T_Scon, T_Scon_DRRR, 372.1, hit, 2, 0
1012, 8, T_Sinc, T_Sinc_URRR, 343.4, hit, 2, 0
1013, 8, T_Scon, T_Scon_DRRR, 394.9, hit, 2, 0
1014, 8, T_Scon, T_Scon_UGLG, 370.4, incorrect, 2, 1
1015, 8, T_Scon, T_Scon_DRRR, 361.7, hit, 2, 0
1016, 8, T_Scon, T_Scon_DRRR, 341.2, hit, 2, 0
1017, 8, T_Sinc, T_Sinc_DGLG, 372.7, hit, 1, 0
1018, 8, T_Scon, T_Scon_UGLG, 480.2, hit, 1, 0
1019, 8, T_Scon, T_Scon_DRRR, 367.5, hit, 2, 0
1020, 8, T_Scon, T_Scon_UGLG, 439.0, hit, 1, 0
1021, 8, T_Scon, T_Scon_DRRR, 378.5, hit, 2, 0
1022, 8, T_Scon, T_Scon_UGLG, 717.8, hit, 1, 0
1023, 8, T_Scon, T_Scon_UGLG, 341.3, hit, 1, 0
1024, 8, T_Scon, T_Scon_DRRR, 464.8, hit, 2, 0
1025, 8, T_Sinc, T_Sinc_DGLG, 620.1, hit, 1, 0
1026, 8, T_Scon, T_Scon_DRRR, 451.6, hit, 2, 0
1027, 8, T_Sinc, T_Sinc_DGLG, 359.1, incorrect, 2, 1
1028, 8, T_Scon, T_Scon_DRRR, 394.5, hit, 2, 0
1029, 8, T_Scon, T_Scon_DRRR, 429.9, incorrect, 1, 1
1030, 8, T_Scon, T_Scon_DRRR, 393.4, hit, 2, 0
1031, 8, T_Sinc, T_Sinc_URRR, 428.8, hit, 2, 0
1032, 8, T_Sinc, T_Sinc_DGLG, 428.2, hit, 1, 0
1033, 8, T_Scon, T_Scon_UGLG, 471.6, hit, 1, 0
1034, 8, T_Scon, T_Scon_UGLG, 335.1, hit, 1, 0
1035, 8, T_Scon, T_Scon_DRRR, 314.5, hit, 2, 0
1036, 8, T_Scon, T_Scon_DRRR, 338.0, hit, 2, 0
1037, 8, T_Scon, T_Scon_UGLG, 333.4, hit, 1, 0
1038, 8, T_Scon, T_Scon_DRRR, 344.9, hit, 2, 0
1039, 8, T_Scon, T_Scon_DRRR, 372.3, hit, 2, 0
1040, 8, T_Scon, T_Scon_UGLG, 427.7, hit, 1, 0
1041, 8, T_Sinc, T_Sinc_DGLG, 487.2, hit, 1, 0
1042, 8, T_Scon, T_Scon_DRRR, 366.5, incorrect, 1, 1
1043, 8, T_Scon, T_Scon_UGLG, 402.0, hit, 1, 0
1044, 8, T_Scon, T_Scon_UGLG, 561.5, hit, 1, 0
1045, 8, T_Sinc, T_Sinc_URRR, 424.7, hit, 2, 0
1046, 8, T_Scon, T_Scon_DRRR, 472.0, hit, 2, 0
1047, 8, T_Sinc, T_Sinc_DGLG, 431.5, hit, 1, 0
1048, 8, T_Sinc, T_Sinc_DGLG, 419.0, hit, 1, 0
1049, 8, T_Scon, T_Scon_DRRR, 398.3, hit, 2, 0
1050, 8, T_Scon, T_Scon_UGLG, 409.8, hit, 1, 0
1051, 8, T_Scon, T_Scon_UGLG, 337.3, hit, 1, 0
1052, 8, T_Sinc, T_Sinc_URRR, 376.6, hit, 2, 0
1053, 8, T_Scon, T_Scon_UGLG, 408.1, hit, 1, 0
1054, 8, T_Scon, T_Scon_UGLG, 363.6, hit, 1, 0
1055, 8, T_Scon, T_Scon_DRRR, 507.0, incorrect, 1, 1
1056, 8, T_Scon, T_Scon_UGLG, 398.4, hit, 1, 0
1057, 8, T_Scon, T_Scon_UGLG, 521.9, hit, 1, 0
1058, 8, T_Scon, T_Scon_DRRR, 369.3, hit, 2, 0
1059, 8, T_Scon, T_Scon_DRRR, 436.7, hit, 2, 0
1060, 8, T_Scon, T_Scon_UGLG, 336.1, hit, 1, 0
1061, 8, T_Scon, T_Scon_DRRR, 343.6, hit, 2, 0
1062, 8, T_Scon, T_Scon_UGLG, 483.0, hit, 1, 0
1063, 8, T_Scon, T_Scon_DRRR, 278.4, hit, 2, 0
1064, 8, T_Scon, T_Scon_DRRR, 521.9, hit, 2, 0
1065, 8, T_Sinc, T_Sinc_URRR, 405.4, hit, 2, 0
1066, 8, T_Sinc, T_Sinc_URRR, 320.7, hit, 2, 0
1067, 8, T_Sinc, T_Sinc_DGLG, 300.2, hit, 1, 0
1068, 8, T_Scon, T_Scon_DRRR, 343.7, incorrect, 1, 1
1069, 8, T_Scon, T_Scon_UGLG, 435.1, incorrect, 2, 1
1070, 8, T_Sinc, T_Sinc_DGLG, 494.5, hit, 1, 0
1071, 8, T_Scon, T_Scon_UGLG, 466.0, hit, 1, 0
1072, 8, T_Scon, T_Scon_UGLG, 309.4, hit, 1, 0
1073, 8, T_Scon, T_Scon_DRRR, 336.8, hit, 2, 0
1074, 8, T_Sinc, T_Sinc_DGLG, 444.3, hit, 1, 0
1075, 8, T_Scon, T_Scon_DRRR, 351.7, hit, 2, 0
1076, 8, T_Scon, T_Scon_DRRR, 451.1, hit, 2, 0
1077, 8, T_Scon, T_Scon_DRRR, 398.6, hit, 2, 0
1078, 8, T_Scon, T_Scon_DRRR, 350.1, hit, 2, 0
1079, 8, T_Scon, T_Scon_DRRR, 369.4, hit, 2, 0
1080, 8, T_Scon, T_Scon_UGLG, 408.9, hit, 1, 0
1081, 8, T_Scon, T_Scon_DRRR, 552.1, hit, 2, 0
1082, 8, T_Scon, T_Scon_DRRR, 427.4, hit, 2, 0
1083, 8, T_Scon, T_Scon_DRRR, 474.9, hit, 2, 0
1084, 8, T_Scon, T_Scon_UGLG, 358.4, hit, 1, 0
1085, 8, T_Sinc, T_Sinc_URRR, 409.8, hit, 2, 0
1086, 8, T_Scon, T_Scon_UGLG, 397.2, hit, 1, 0
1087, 8, T_Sinc, T_Sinc_DGLG, 472.7, hit, 1, 0
1088, 8, T_Sinc, T_Sinc_DGLG, 424.1, hit, 1, 0
1089, 8, T_Scon, T_Scon_UGLG, 491.5, hit, 1, 0
1090, 8, T_Scon, T_Scon_DRRR, 319.0, hit, 2, 0
1091, 8, T_Scon, T_Scon_DRRR, 346.5, hit, 2, 0
1092, 8, T_Scon, T_Scon_DRRR, 589.8, hit, 2, 0
1093, 8, T_Scon, T_Scon_UGLG, 441.3, hit, 1, 0
1094, 8, T_Scon, T_Scon_DRRR, 428.7, hit, 2, 0
1095, 8, T_Scon, T_Scon_DRRR, 428.1, hit, 2, 0
1096, 8, T_Sinc, T_Sinc_URRR, 455.6, hit, 2, 0
1097, 8, T_Sinc, T_Sinc_URRR, 295.1, hit, 2, 0
1098, 8, T_Scon, T_Scon_DRRR, 454.4, hit, 2, 0
1099, 8, T_Sinc, T_Sinc_DGLG, 377.9, hit, 1, 0
1100, 8, T_Scon, T_Scon_DRRR, 441.4, hit, 2, 0
1101, 8, T_Sinc, T_Sinc_URRR, 356.8, hit, 2, 0
1102, 8, T_Scon, T_Scon_DRRR, 400.2, hit, 2, 0
1103, 8, T_Scon, T_Scon_UGLG, 395.7, hit, 1, 0
1104, 8, T_Scon, T_Scon_UGLG, 495.2, hit, 1, 0
1105, 8, T_Scon, T_Scon_UGLG, 506.5, hit, 1, 0
1106, 8, T_Scon, T_Scon_UGLG, 378.0, hit, 1, 0
1107, 8, T_Scon, T_Scon_UGLG, 329.5, hit, 1, 0
1108, 8, T_Scon, T_Scon_DRRR, 348.8, hit, 2, 0
1109, 8, T_Scon, T_Scon_DRRR, 416.3, hit, 2, 0
1110, 8, T_Sinc, T_Sinc_URRR, 443.8, hit, 2, 0
1111, 8, T_Scon, T_Scon_DRRR, 375.1, hit, 2, 0
1112, 8, T_Scon, T_Scon_UGLG, 718.6, hit, 1, 0
1113, 8, T_Scon, T_Scon_DRRR, 466.1, hit, 2, 0
1114, 8, T_Sinc, T_Sinc_DGLG, 401.5, hit, 1, 0
1115, 8, T_Scon, T_Scon_UGLG, 360.9, hit, 1, 0
1116, 8, T_Scon, T_Scon_UGLG, 456.4, hit, 1, 0
1117, 8, T_Scon, T_Scon_DRRR, 403.5, hit, 2, 0
1118, 8, T_Sinc, T_Sinc_DGLG, 406.9, hit, 1, 0
1119, 8, T_Scon, T_Scon_UGLG, 438.4, hit, 1, 0
1120, 8, T_Scon, T_Scon_UGLG, 345.8, hit, 1, 0
1121, 8, T_Sinc, T_Sinc_DGLG, 349.2, hit, 1, 0
1122, 8, T_Scon, T_Scon_UGLG, 352.7, hit, 1, 0
1123, 8, T_Scon, T_Scon_UGLG, 316.1, hit, 1, 0
1124, 8, T_Scon, T_Scon_DRRR, 379.6, hit, 2, 0
1125, 8, T_Scon, T_Scon_DRRR, 367.0, incorrect, 1, 1
1126, 8, T_Sinc, T_Sinc_DGLG, 358.5, hit, 1, 0
1127, 8, T_Scon, T_Scon_DRRR, 301.9, hit, 2, 0
1128, 8, T_Scon, T_Scon_UGLG, 657.3, hit, 1, 0
1129, 8, T_Scon, T_Scon_UGLG, 312.8, hit, 1, 0
1130, 8, T_Scon, T_Scon_UGLG, 440.2, hit, 1, 0
1131, 8, T_Sinc, T_Sinc_URRR, 379.7, hit, 2, 0
1132, 8, T_Scon, T_Scon_UGLG, 455.1, hit, 1, 0
1133, 8, T_Scon, T_Scon_UGLG, 486.5, hit, 1, 0
1134, 8, T_Sinc, T_Sinc_DGLG, 402.0, hit, 1, 0
1135, 8, T_Scon, T_Scon_UGLG, 341.3, hit, 1, 0
1136, 8, T_Scon, T_Scon_DRRR, 464.8, hit, 2, 0
1137, 8, T_Sinc, T_Sinc_URRR, 396.3, hit, 2, 0
1138, 8, T_Scon, T_Scon_UGLG, 391.6, hit, 1, 0
1139, 8, T_Scon, T_Scon_UGLG, 447.1, hit, 1, 0
1140, 8, T_Sinc, T_Sinc_URRR, 450.6, hit, 2, 0
1141, 8, T_Scon, T_Scon_DRRR, 433.9, hit, 2, 0
1142, 8, T_Sinc, T_Sinc_URRR, 357.4, hit, 2, 0
1143, 8, T_Sinc, T_Sinc_URRR, 340.9, hit, 2, 0
1144, 8, T_Sinc, T_Sinc_URRR, 320.3, hit, 2, 0
1145, 8, T_Scon, T_Scon_UGLG, 427.7, hit, 1, 0
1146, 8, T_Scon, T_Scon_UGLG, 379.2, hit, 1, 0
1147, 8, T_Scon, T_Scon_UGLG, 422.6, hit, 1, 0
1148, 8, T_Scon, T_Scon_UGLG, 270.0, hit, 1, 0
1149, 8, T_Scon, T_Scon_DRRR, 625.5, hit, 2, 0
1150, 8, T_Scon, T_Scon_UGLG, 436.9, hit, 1, 0
1151, 8, T_Scon, T_Scon_UGLG, 568.4, hit, 1, 0
1152, 8, T_Scon, T_Scon_DRRR, 475.7, hit, 2, 0
1153, 9, T_Scon, T_Scon_DRRR, 396.7, hit, 2, 0
1154, 9, T_Scon, T_Scon_UGLG, 440.1, hit, 1, 0
1155, 9, T_Scon, T_Scon_DRRR, 339.5, incorrect, 1, 1
1156, 9, T_Scon, T_Scon_DRRR, 442.9, hit, 2, 0
1157, 9, T_Scon, T_Scon_UGLG, 394.4, hit, 1, 0
1158, 9, T_Scon, T_Scon_DRRR, 437.8, hit, 2, 0
1159, 9, T_Scon, T_Scon_DRRR, 401.2, hit, 2, 0
1160, 9, T_Scon, T_Scon_DRRR, 356.6, hit, 2, 0
1161, 9, T_Scon, T_Scon_UGLG, 376.1, hit, 1, 0
1162, 9, T_Scon, T_Scon_DRRR, 391.6, hit, 2, 0
1163, 9, T_Scon, T_Scon_DRRR, 330.9, hit, 2, 0
1164, 9, T_Scon, T_Scon_UGLG, 358.4, hit, 1, 0
1165, 9, T_Scon, T_Scon_UGLG, 417.9, incorrect, 2, 1
1166, 9, T_Scon, T_Scon_UGLG, 449.3, hit, 1, 0
1167, 9, T_Scon, T_Scon_UGLG, 328.7, hit, 1, 0
1168, 9, T_Scon, T_Scon_UGLG, 324.2, hit, 1, 0
1169, 9, T_Scon, T_Scon_UGLG, 415.7, hit, 1, 0
1170, 9, T_Scon, T_Scon_UGLG, 323.0, hit, 1, 0
1171, 9, T_Scon, T_Scon_DRRR, 342.5, hit, 2, 0
1172, 9, T_Scon, T_Scon_UGLG, 385.9, hit, 1, 0
1173, 9, T_Scon, T_Scon_DRRR, 385.3, hit, 2, 0
1174, 9, T_Scon, T_Scon_UGLG, 452.8, hit, 1, 0
1175, 9, T_Scon, T_Scon_DRRR, 344.3, hit, 2, 0
1176, 9, T_Sinc, T_Sinc_URRR, 335.7, hit, 2, 0
1177, 9, T_Scon, T_Scon_UGLG, 403.1, hit, 1, 0
1178, 9, T_Scon, T_Scon_UGLG, 430.6, hit, 1, 0
1179, 9, T_Scon, T_Scon_UGLG, 286.0, hit, 1, 0
1180, 9, T_Scon, T_Scon_UGLG, 445.4, hit, 1, 0
1181, 9, T_Sinc, T_Sinc_URRR, 324.9, incorrect, 1, 1
1182, 9, T_Scon, T_Scon_DRRR, 340.3, hit, 2, 0
1183, 9, T_Scon, T_Scon_DRRR, 351.7, hit, 2, 0
1184, 9, T_Scon, T_Scon_UGLG, 459.2, hit, 1, 0
1185, 9, T_Sinc, T_Sinc_DGLG, 522.6, hit, 1, 0
1186, 9, T_Sinc, T_Sinc_DGLG, 398.0, hit, 1, 0
1187, 9, T_Scon, T_Scon_DRRR, 489.5, hit, 2, 0
1188, 9, T_Sinc, T_Sinc_URRR, 373.0, hit, 2, 0
1189, 9, T_Sinc, T_Sinc_DGLG, 564.1, hit, 1, 0
1190, 9, T_Scon, T_Scon_DRRR, 511.5, hit, 2, 0
1191, 9, T_Sinc, T_Sinc_URRR, 411.0, hit, 2, 0
1192, 9, T_Scon, T_Scon_DRRR, 322.3, hit, 2, 0
1193, 9, T_Sinc, T_Sinc_DGLG, 429.8, hit, 1, 0
1194, 9, T_Sinc, T_Sinc_URRR, 365.3, hit, 2, 0
1195, 9, T_Scon, T_Scon_UGLG, 404.6, hit, 1, 0
1196, 9, T_Scon, T_Scon_DRRR, 368.1, hit, 2, 0
1197, 9, T_Sinc, T_Sinc_DGLG, 499.6, hit, 1, 0
1198, 9, T_Sinc, T_Sinc_URRR, 307.0, hit, 2, 0
1199, 9, T_Scon, T_Scon_DRRR, 470.4, hit, 2, 0
1200, 9, T_Scon, T_Scon_DRRR, 517.9, hit, 2, 0
1201, 9, T_Scon, T_Scon_UGLG, 401.2, hit, 1, 0
1202, 9, T_Scon, T_Scon_UGLG, 436.7, incorrect, 2, 1
1203, 9, T_Scon, T_Scon_UGLG, 424.2, hit, 1, 0
1204, 9, T_Scon, T_Scon_UGLG, 367.6, hit, 1, 0
1205, 9, T_Scon, T_Scon_UGLG, 411.1, hit, 1, 0
1206, 9, T_Scon, T_Scon_UGLG, 422.5, hit, 1, 0
1207, 9, T_Scon, T_Scon_DRRR, 365.9, hit, 2, 0
1208, 9, T_Sinc, T_Sinc_DGLG, 441.4, hit, 1, 0
1209, 9, T_Scon, T_Scon_UGLG, 540.8, hit, 1, 0
1210, 9, T_Scon, T_Scon_DRRR, 384.2, hit, 2, 0
1211, 9, T_Scon, T_Scon_UGLG, 459.7, hit, 1, 0
1212, 9, T_Sinc, T_Sinc_DGLG, 355.1, hit, 1, 0
1213, 9, T_Sinc, T_Sinc_DGLG, 318.6, hit, 1, 0
1214, 9, T_Scon, T_Scon_DRRR, 462.0, hit, 2, 0
1215, 9, T_Sinc, T_Sinc_DGLG, 473.4, hit, 1, 0
1216, 9, T_Scon, T_Scon_DRRR, 381.0, hit, 2, 0
1217, 9, T_Scon, T_Scon_DRRR, 424.3, hit, 2, 0
1218, 9, T_Scon, T_Scon_DRRR, 387.8, hit, 2, 0
1219, 9, T_Scon, T_Scon_UGLG, 407.1, hit, 1, 0
1220, 9, T_Scon, T_Scon_UGLG, 370.6, hit, 1, 0
1221, 9, T_Scon, T_Scon_DRRR, 298.1, hit, 2, 0
1222, 9, T_Scon, T_Scon_UGLG, 445.4, hit, 1, 0
1223, 9, T_Scon, T_Scon_DRRR, 440.9, hit, 2, 0
1224, 9, T_Scon, T_Scon_DRRR, 540.4, hit, 2, 0
1225, 9, T_Scon, T_Scon_UGLG, 451.6, hit, 1, 0
1226, 9, T_Scon, T_Scon_DRRR, 406.9, incorrect, 1, 1
1227, 9, T_Sinc, T_Sinc_DGLG, 546.4, hit, 1, 0
1228, 9, T_Scon, T_Scon_UGLG, 437.9, hit, 1, 0
1229, 9, T_Scon, T_Scon_UGLG, 385.3, hit, 1, 0
1230, 9, T_Scon, T_Scon_UGLG, 400.7, hit, 1, 0
1231, 9, T_Sinc, T_Sinc_URRR, 500.2, hit, 2, 0
1232, 9, T_Scon, T_Scon_UGLG, 427.5, hit, 1, 0
1233, 9, T_Scon, T_Scon_UGLG, 423.0, hit, 1, 0
1234, 9, T_Scon, T_Scon_UGLG, 450.5, hit, 1, 0
1235, 9, T_Scon, T_Scon_UGLG, 413.9, hit, 1, 0
1236, 9, T_Sinc, T_Sinc_DGLG, 453.3, hit, 1, 0
1237, 9, T_Scon, T_Scon_UGLG, 460.8, hit, 1, 0
1238, 9, T_Sinc, T_Sinc_DGLG, 348.3, hit, 1, 0
1239, 9, T_Scon, T_Scon_DRRR, 367.6, incorrect, 1, 1
1240, 9, T_Scon, T_Scon_DRRR, 319.1, hit, 2, 0
1241, 9, T_Scon, T_Scon_DRRR, 270.6, hit, 2, 0
1242, 9, T_Scon, T_Scon_DRRR, 481.9, hit, 2, 0
1243, 9, T_Sinc, T_Sinc_URRR, 373.4, hit, 2, 0
1244, 9, T_Scon, T_Scon_UGLG, 440.9, hit, 1, 0
1245, 9, T_Sinc, T_Sinc_URRR, 368.2, incorrect, 1, 1
1246, 9, T_Sinc, T_Sinc_DGLG, 339.7, hit, 1, 0
1247, 9, T_Scon, T_Scon_DRRR, 343.2, hit, 2, 0
1248, 9, T_Scon, T_Scon_DRRR, 418.5, hit, 2, 0
1249, 9, T_Sinc, T_Sinc_DGLG, 458.0, hit, 1, 0
1250, 9, T_Scon, T_Scon_DRRR, 441.5, hit, 2, 0
1251, 9, T_Scon, T_Scon_UGLG, 420.9, hit, 1, 0
1252, 9, T_Sinc, T_Sinc_URRR, 416.3, hit, 2, 0
1253, 9, T_Scon, T_Scon_UGLG, 731.8, hit, 1, 2
1254, 9, T_Sinc, T_Sinc_URRR, 495.1, hit, 2, 0
1255, 9, T_Scon, T_Scon_DRRR, 526.6, hit, 2, 0
1256, 9, T_Scon, T_Scon_DRRR, 402.1, hit, 2, 0
1257, 9, T_Scon, T_Scon_UGLG, 341.5, hit, 1, 0
1258, 9, T_Sinc, T_Sinc_URRR, 440.9, hit, 2, 0
1259, 9, T_Sinc, T_Sinc_URRR, 444.3, hit, 2, 0
1260, 9, T_Sinc, T_Sinc_URRR, 359.8, hit, 2, 0
1261, 9, T_Scon, T_Scon_UGLG, 615.0, hit, 1, 0
1262, 9, T_Scon, T_Scon_DRRR, 358.4, hit, 2, 0
1263, 9, T_Scon, T_Scon_DRRR, 425.8, incorrect, 1, 1
1264, 9, T_Scon, T_Scon_DRRR, 341.3, hit, 2, 0
1265, 9, T_Sinc, T_Sinc_URRR, 384.7, hit, 2, 0
1266, 9, T_Scon, T_Scon_UGLG, 312.1, incorrect, 2, 1
1267, 9, T_Sinc, T_Sinc_DGLG, 395.6, hit, 1, 0
1268, 9, T_Scon, T_Scon_DRRR, 390.9, incorrect, 1, 1
1269, 9, T_Scon, T_Scon_DRRR, 370.4, hit, 2, 0
1270, 9, T_Scon, T_Scon_DRRR, 321.9, hit, 2, 0
1271, 9, T_Scon, T_Scon_UGLG, 537.3, hit, 1, 0
1272, 9, T_Scon, T_Scon_DRRR, 392.7, hit, 2, 0
1273, 9, T_Sinc, T_Sinc_DGLG, 480.2, hit, 1, 0
1274, 9, T_Scon, T_Scon_DRRR, 395.6, incorrect, 1, 1
1275, 9, T_Scon, T_Scon_DRRR, 387.0, hit, 2, 0
1276, 9, T_Scon, T_Scon_DRRR, 346.5, hit, 2, 0
1277, 9, T_Sinc, T_Sinc_DGLG, 393.9, hit, 1, 0
1278, 9, T_Scon, T_Scon_DRRR, 541.4, hit, 2, 0
1279, 9, T_Scon, T_Scon_DRRR, 444.8, hit, 2, 0
1280, 9, T_Scon, T_Scon_UGLG, 352.2, hit, 1, 0
1281, 9, T_Scon, T_Scon_UGLG, 331.7, hit, 1, 0
1282, 9, T_Scon, T_Scon_DRRR, 483.1, hit, 2, 0
1283, 9, T_Scon, T_Scon_UGLG, 410.5, hit, 1, 0
1284, 9, T_Scon, T_Scon_UGLG, 334.0, hit, 1, 0
1285, 9, T_Sinc, T_Sinc_URRR, 353.4, hit, 2, 0
1286, 9, T_Scon, T_Scon_DRRR, 332.8, hit, 2, 0
1287, 9, T_Scon, T_Scon_DRRR, 344.3, hit, 2, 0
1288, 9, T_Scon, T_Scon_DRRR, 319.8, hit, 2, 0
1289, 9, T_Scon, T_Scon_UGLG, 411.1, hit, 1, 0
1290, 9, T_Sinc, T_Sinc_URRR, 510.6, hit, 2, 0
1291, 9, T_Scon, T_Scon_UGLG, 438.1, hit, 1, 0
1292, 9, T_Sinc, T_Sinc_DGLG, 489.4, incorrect, 2, 1
1293, 9, T_Scon, T_Scon_UGLG, 444.9, hit, 1, 0
1294, 9, T_Sinc, T_Sinc_URRR, 416.4, hit, 2, 0
1295, 9, T_Scon, T_Scon_UGLG, 467.7, hit, 1, 0
1296, 9, T_Scon, T_Scon_UGLG, 359.2, hit, 1, 0
