trial_index, block, condition, full_condition_code, RT, response_type, response_key, error_outlier
1,1, T_Sinc, T_Sinc_UGRG,524.3, hit,2,0
2,1, T_Sinc, T_Sinc_DRLR,387.7, hit,1,0
3,1, T_Sinc, T_Sinc_DRLR,399.1, incorrect,2,1
4,1, T_Sinc, T_Sinc_DRLR,482.6, hit,1,0
5,1, T_Sinc, T_Sinc_DRLR,394, hit,1,0
6,1, T_Sinc, T_Sinc_UGRG,369.5, hit,2,0
7,1, T_Scon, T_Scon_URLR,584.9, hit,1,0
8,1, T_Sinc, T_Sinc_UGRG,420.3, incorrect,1,1
9,1, T_Sinc, T_Sinc_DRLR,415.7, hit,1,0
10,1, T_Sinc, T_Sinc_DRLR,379.2, hit,1,0
11,1, T_Sinc, T_Sinc_UGRG,366.6, hit,2,0
12,1, T_Sinc, T_Sinc_DRLR,374.1, hit,1,0
13,1, T_Sinc, T_Sinc_UGRG,433.5, hit,2,0
14,1, T_Sinc, T_Sinc_DRLR,437, hit,1,0
15,1, T_Sinc, T_Sinc_DRLR,372.3, hit,1,0
16,1, T_Scon, T_Scon_URLR,527.8, hit,1,0
17,1, T_Sinc, T_Sinc_DRLR,351.2, hit,1,0
18,1, T_Sinc, T_Sinc_UGRG,474.7, hit,2,0
19,1, T_Scon, T_Scon_URLR,478.1, hit,1,0
20,1, T_Sinc, T_Sinc_UGRG,505.6, hit,2,0
21,1, T_Sinc, T_Sinc_DRLR,345.1, hit,1,0
22,1, T_Sinc, T_Sinc_DRLR,292.5, hit,1,0
23,1, T_Sinc, T_Sinc_DRLR,355.9, hit,1,0
24,1, T_Scon, T_Scon_URLR,383.3, incorrect,2,1
25,1, T_Sinc, T_Sinc_UGRG,450.8, hit,2,0
26,1, T_Sinc, T_Sinc_DRLR,410.2, hit,1,0
27,1, T_Sinc, T_Sinc_DRLR,453.6, hit,1,0
28,1, T_Sinc, T_Sinc_DRLR,529.1, hit,1,0
29,1, T_Sinc, T_Sinc_UGRG,380.5, hit,2,0
30,1, T_Sinc, T_Sinc_UGRG,504, hit,2,0
31,1, T_Sinc, T_Sinc_UGRG,367.4, hit,2,0
32,1, T_Sinc, T_Sinc_UGRG,354.8, hit,2,0
33,1, T_Scon, T_Scon_URLR,390.3, hit,1,0
34,1, T_Sinc, T_Sinc_UGRG,449.7, hit,2,0
35,1, T_Sinc, T_Sinc_UGRG,525.2, hit,2,0
36,1, T_Sinc, T_Sinc_DRLR,448.6, hit,1,0
37,1, T_Sinc, T_Sinc_DRLR,591.8, hit,1,0
38,1, T_Sinc, T_Sinc_DRLR,315.2, hit,1,0
39,1, T_Sinc, T_Sinc_DRLR,366.6, hit,1,0
40,1, T_Scon, T_Scon_URLR,498, hit,1,0
41,1, T_Sinc, T_Sinc_UGRG,445.5, hit,2,0
42,1, T_Scon, T_Scon_DGRG,333, hit,2,0
43,1, T_Sinc, T_Sinc_DRLR,640.3, incorrect,2,1
44,1, T_Sinc, T_Sinc_DRLR,303.7, hit,1,0
45,1, T_Scon, T_Scon_DGRG,363.2, incorrect,1,1
46,1, T_Scon, T_Scon_URLR,406.6, hit,1,0
47,1, T_Sinc, T_Sinc_UGRG,498.1, hit,2,0
48,1, T_Scon, T_Scon_DGRG,629.5, hit,2,0
49,1, T_Sinc, T_Sinc_UGRG,353, hit,2,0
50,1, T_Sinc, T_Sinc_UGRG,388.4, hit,2,0
51,1, T_Sinc, T_Sinc_UGRG,375.8, hit,2,0
52,1, T_Scon, T_Scon_URLR,435.3, hit,1,0
53,1, T_Sinc, T_Sinc_DRLR,434.7, hit,1,0
54,1, T_Sinc, T_Sinc_UGRG,402.2, hit,2,0
55,1, T_Sinc, T_Sinc_UGRG,673.6, hit,2,0
56,1, T_Sinc, T_Sinc_UGRG,341.1, hit,2,0
57,1, T_Sinc, T_Sinc_DRLR,368.4, hit,1,0
58,1, T_Sinc, T_Sinc_DRLR,407.9, hit,1,0
59,1, T_Scon, T_Scon_DGRG,451.3, hit,2,0
60,1, T_Sinc, T_Sinc_UGRG,342.8, hit,2,0
61,1, T_Sinc, T_Sinc_UGRG,326.2, hit,2,0
62,1, T_Sinc, T_Sinc_DRLR,421.7, hit,1,0
63,1, T_Sinc, T_Sinc_UGRG,609.1, hit,2,0
64,1, T_Scon, T_Scon_URLR,532.6, hit,1,0
65,1, T_Sinc, T_Sinc_UGRG,499.9, hit,2,0
66,1, T_Scon, T_Scon_DGRG,543.4, hit,2,0
67,1, T_Sinc, T_Sinc_UGRG,370.8, hit,2,0
68,1, T_Sinc, T_Sinc_DRLR,522.3, hit,1,0
69,1, T_Sinc, T_Sinc_DRLR,445.7, hit,1,0
70,1, T_Sinc, T_Sinc_DRLR,281.2, hit,1,0
71,1, T_Sinc, T_Sinc_UGRG,364.6, hit,2,0
72,1, T_Sinc, T_Sinc_UGRG,344, hit,2,0
73,1, T_Sinc, T_Sinc_DRLR,0.1, miss,1925721,1
74,1, T_Scon, T_Scon_URLR,486.1, hit,1,0
75,1, T_Sinc, T_Sinc_UGRG,633.5, hit,2,0
76,1, T_Sinc, T_Sinc_DRLR,716.9, hit,1,0
77,1, T_Sinc, T_Sinc_UGRG,408.3, hit,2,0
78,1, T_Sinc, T_Sinc_UGRG,403.8, hit,2,0
79,1, T_Sinc, T_Sinc_UGRG,343.2, hit,2,0
80,1, T_Scon, T_Scon_URLR,390.7, hit,1,0
81,1, T_Sinc, T_Sinc_DRLR,522.1, hit,1,0
82,1, T_Scon, T_Scon_URLR,517.6, hit,1,0
83,1, T_Sinc, T_Sinc_DRLR,633, hit,1,0
84,1, T_Scon, T_Scon_DGRG,484.4, hit,2,0
85,1, T_Scon, T_Scon_DGRG,635.8, hit,2,0
86,1, T_Sinc, T_Sinc_DRLR,427.3, hit,1,0
87,1, T_Scon, T_Scon_URLR,502.7, hit,1,0
88,1, T_Sinc, T_Sinc_UGRG,606.2, hit,2,0
89,1, T_Sinc, T_Sinc_DRLR,465.6, hit,1,0
90,1, T_Sinc, T_Sinc_UGRG,341, hit,2,0
91,1, T_Scon, T_Scon_DGRG,436.5, hit,2,0
92,1, T_Sinc, T_Sinc_DRLR,559.9, hit,1,0
93,1, T_Scon, T_Scon_DGRG,543.3, hit,2,0
94,1, T_Scon, T_Scon_DGRG,586.8, hit,2,0
95,1, T_Scon, T_Scon_DGRG,430.2, hit,2,0
96,1, T_Sinc, T_Sinc_DRLR,601.7, hit,1,0
97,1, T_Sinc, T_Sinc_UGRG,457.1, hit,2,0
98,1, T_Sinc, T_Sinc_DRLR,524.5, hit,1,0
99,1, T_Sinc, T_Sinc_DRLR,459.9, hit,1,0
100,1, T_Sinc, T_Sinc_UGRG,455.4, hit,2,0
101,1, T_Sinc, T_Sinc_UGRG,450.8, hit,2,0
102,1, T_Sinc, T_Sinc_DRLR,394.3, hit,1,0
103,1, T_Scon, T_Scon_URLR,593.7, hit,1,0
104,1, T_Sinc, T_Sinc_UGRG,477.2, hit,2,0
105,1, T_Sinc, T_Sinc_DRLR,468.6, hit,1,0
106,1, T_Sinc, T_Sinc_DRLR,296.1, hit,1,0
107,1, T_Sinc, T_Sinc_UGRG,411.4, hit,2,0
108,1, T_Sinc, T_Sinc_DRLR,282.6, hit,1,0
109,1, T_Sinc, T_Sinc_DRLR,290.1, hit,1,0
110,1, T_Sinc, T_Sinc_UGRG,401.4, hit,2,0
111,1, T_Sinc, T_Sinc_DRLR,288.9, hit,1,0
112,1, T_Sinc, T_Sinc_UGRG,584.3, hit,2,0
113,1, T_Scon, T_Scon_DGRG,427.8, hit,2,0
114,1, T_Sinc, T_Sinc_UGRG,347.2, hit,2,0
115,1, T_Sinc, T_Sinc_UGRG,302.7, hit,2,0
116,1, T_Sinc, T_Sinc_UGRG,306.1, hit,2,0
117,1, T_Sinc, T_Sinc_UGRG,337.6, hit,2,0
118,1, T_Sinc, T_Sinc_DRLR,357, hit,1,0
119,1, T_Sinc, T_Sinc_UGRG,660.4, hit,2,0
120,1, T_Sinc, T_Sinc_DRLR,303.9, hit,1,0
121,1, T_Scon, T_Scon_DGRG,371.3, hit,2,0
122,1, T_Sinc, T_Sinc_DRLR,346.8, incorrect,2,1
123,1, T_Sinc, T_Sinc_UGRG,354.2, hit,2,0
124,1, T_Scon, T_Scon_DGRG,473.7, hit,2,0
125,1, T_Sinc, T_Sinc_UGRG,373.1, hit,2,0
126,1, T_Scon, T_Scon_DGRG,340.5, hit,2,0
127,1, T_Sinc, T_Sinc_DRLR,439.9, hit,1,0
128,1, T_Sinc, T_Sinc_UGRG,319.4, hit,2,0
129,1, T_Scon, T_Scon_URLR,466.8, hit,1,0
130,1, T_Sinc, T_Sinc_DRLR,646.3, hit,1,0
131,1, T_Scon, T_Scon_URLR,665.7, hit,1,0
132,1, T_Scon, T_Scon_URLR,437.2, hit,1,0
133,1, T_Sinc, T_Sinc_UGRG,552.5, hit,2,0
134,1, T_Sinc, T_Sinc_UGRG,396, hit,2,0
135,1, T_Scon, T_Scon_URLR,563.4, incorrect,2,1
136,1, T_Scon, T_Scon_DGRG,370.9, hit,2,0
137,1, T_Sinc, T_Sinc_DRLR,534.3, hit,1,0
138,1, T_Scon, T_Scon_DGRG,433.8, hit,2,0
139,1, T_Scon, T_Scon_DGRG,413.2, hit,2,0
140,1, T_Sinc, T_Sinc_UGRG,504.7, hit,2,0
141,1, T_Sinc, T_Sinc_DRLR,612, hit,1,0
142,1, T_Sinc, T_Sinc_DRLR,615.5, hit,1,0
143,1, T_Sinc, T_Sinc_DRLR,834.9, hit,1,2
144,2, T_Scon, T_Scon_URLR,438.9, hit,1,0
145,2, T_Scon, T_Scon_DGRG,402.3, hit,2,0
146,2, T_Sinc, T_Sinc_UGRG,453.7, hit,2,0
147,2, T_Sinc, T_Sinc_UGRG,309.1, hit,2,0
148,2, T_Sinc, T_Sinc_DRLR,396.6, hit,1,0
149,2, T_Scon, T_Scon_DGRG,399.9, hit,2,0
150,2, T_Scon, T_Scon_URLR,507.5, hit,1,0
151,2, T_Scon, T_Scon_DGRG,414.8, hit,2,0
152,2, T_Sinc, T_Sinc_DRLR,422.3, hit,1,0
153,2, T_Sinc, T_Sinc_DRLR,317.7, hit,1,0
154,2, T_Sinc, T_Sinc_UGRG,453.2, hit,2,0
155,2, T_Sinc, T_Sinc_DRLR,392.6, hit,1,0
156,2, T_Sinc, T_Sinc_DRLR,460, hit,1,0
157,2, T_Sinc, T_Sinc_UGRG,407.5, hit,2,0
158,2, T_Sinc, T_Sinc_UGRG,331, hit,2,0
159,2, T_Sinc, T_Sinc_UGRG,398.3, hit,2,0
160,2, T_Sinc, T_Sinc_UGRG,297.9, hit,2,0
161,2, T_Scon, T_Scon_DGRG,325.2, hit,2,0
162,2, T_Sinc, T_Sinc_UGRG,272.7, hit,2,0
163,2, T_Sinc, T_Sinc_DRLR,460.1, hit,1,0
164,2, T_Sinc, T_Sinc_UGRG,503.6, hit,2,0
165,2, T_Sinc, T_Sinc_DRLR,407, hit,1,0
166,2, T_Scon, T_Scon_URLR,430.4, hit,1,0
167,2, T_Sinc, T_Sinc_UGRG,485.8, hit,2,0
168,2, T_Sinc, T_Sinc_DRLR,477.3, hit,1,0
169,2, T_Sinc, T_Sinc_DRLR,480.7, hit,1,0
170,2, T_Sinc, T_Sinc_DRLR,384.2, incorrect,2,1
171,2, T_Sinc, T_Sinc_UGRG,371.6, hit,2,0
172,2, T_Sinc, T_Sinc_DRLR,479.1, hit,1,0
173,2, T_Sinc, T_Sinc_UGRG,554.5, hit,2,0
174,2, T_Sinc, T_Sinc_DRLR,397.9, hit,1,0
175,2, T_Sinc, T_Sinc_DRLR,401.4, hit,1,0
176,2, T_Scon, T_Scon_DGRG,388.8, incorrect,1,1
177,2, T_Sinc, T_Sinc_DRLR,408.3, hit,1,0
178,2, T_Sinc, T_Sinc_UGRG,579.7, hit,2,0
179,2, T_Sinc, T_Sinc_DRLR,419.2, hit,1,0
180,2, T_Scon, T_Scon_URLR,442.4, hit,1,0
181,2, T_Sinc, T_Sinc_UGRG,693.7, hit,2,0
182,2, T_Sinc, T_Sinc_UGRG,337.2, incorrect,1,1
183,2, T_Scon, T_Scon_DGRG,380.5, incorrect,1,1
184,2, T_Sinc, T_Sinc_DRLR,472.1, hit,1,0
185,2, T_Sinc, T_Sinc_UGRG,395.4, hit,2,0
186,2, T_Sinc, T_Sinc_DRLR,478.9, hit,1,0
187,2, T_Sinc, T_Sinc_DRLR,522.3, hit,1,0
188,2, T_Sinc, T_Sinc_DRLR,321.8, hit,1,0
189,2, T_Sinc, T_Sinc_UGRG,373.2, hit,2,0
190,2, T_Sinc, T_Sinc_UGRG,328.7, hit,2,0
191,2, T_Scon, T_Scon_URLR,428.1, hit,1,0
192,2, T_Sinc, T_Sinc_UGRG,463.6, hit,2,0
193,2, T_Scon, T_Scon_URLR,426.9, hit,1,0
194,2, T_Sinc, T_Sinc_DRLR,342.4, incorrect,2,1
195,2, T_Sinc, T_Sinc_DRLR,313.8, hit,1,0
196,2, T_Sinc, T_Sinc_UGRG,309.3, hit,2,0
197,2, T_Sinc, T_Sinc_DRLR,424.7, hit,1,0
198,2, T_Sinc, T_Sinc_UGRG,596.2, hit,2,0
199,2, T_Scon, T_Scon_URLR,375.6, hit,1,0
200,2, T_Sinc, T_Sinc_UGRG,395, hit,2,0
201,2, T_Scon, T_Scon_DGRG,430.4, hit,2,0
202,2, T_Scon, T_Scon_DGRG,449.9, hit,2,0
203,2, T_Sinc, T_Sinc_UGRG,337.3, hit,2,0
204,2, T_Scon, T_Scon_DGRG,492.8, hit,2,0
205,2, T_Sinc, T_Sinc_UGRG,384.2, hit,2,0
206,2, T_Sinc, T_Sinc_DRLR,319.7, hit,1,0
207,2, T_Sinc, T_Sinc_UGRG,379.1, hit,2,0
208,2, T_Sinc, T_Sinc_UGRG,346.5, hit,2,0
209,2, T_Sinc, T_Sinc_DRLR,317.9, hit,1,0
210,2, T_Sinc, T_Sinc_DRLR,437.4, hit,1,0
211,2, T_Sinc, T_Sinc_UGRG,420.9, hit,2,0
212,2, T_Sinc, T_Sinc_UGRG,368.3, hit,2,0
213,2, T_Scon, T_Scon_DGRG,291.8, hit,2,0
214,2, T_Sinc, T_Sinc_UGRG,379.2, hit,2,0
215,2, T_Sinc, T_Sinc_UGRG,290.7, hit,2,0
216,2, T_Sinc, T_Sinc_DRLR,605.8, hit,1,0
217,2, T_Sinc, T_Sinc_DRLR,297.2, hit,1,0
218,2, T_Sinc, T_Sinc_DRLR,296.6, hit,1,0
219,2, T_Sinc, T_Sinc_UGRG,380.1, hit,2,0
220,2, T_Scon, T_Scon_URLR,367.4, hit,1,0
221,2, T_Sinc, T_Sinc_UGRG,466.9, hit,2,0
222,2, T_Sinc, T_Sinc_DRLR,478.3, hit,1,0
223,2, T_Sinc, T_Sinc_DRLR,293.8, hit,1,0
224,2, T_Sinc, T_Sinc_DRLR,305.2, hit,1,0
225,2, T_Sinc, T_Sinc_UGRG,348.7, hit,2,0
226,2, T_Sinc, T_Sinc_UGRG,248.2, hit,2,0
227,2, T_Sinc, T_Sinc_UGRG,355.6, hit,2,0
228,2, T_Scon, T_Scon_URLR,418.9, hit,1,0
229,2, T_Sinc, T_Sinc_DRLR,406.4, incorrect,2,1
230,2, T_Sinc, T_Sinc_UGRG,329.9, hit,2,0
231,2, T_Scon, T_Scon_URLR,413.3, incorrect,2,1
232,2, T_Sinc, T_Sinc_DRLR,360.7, hit,1,0
233,2, T_Scon, T_Scon_DGRG,412.2, hit,2,0
234,2, T_Sinc, T_Sinc_UGRG,299.6, hit,2,0
235,2, T_Sinc, T_Sinc_DRLR,455.1, hit,1,0
236,2, T_Sinc, T_Sinc_UGRG,286.4, hit,2,0
237,2, T_Sinc, T_Sinc_UGRG,353.9, hit,2,0
238,2, T_Sinc, T_Sinc_UGRG,325.3, hit,2,0
239,2, T_Sinc, T_Sinc_DRLR,448.8, hit,1,0
240,2, T_Sinc, T_Sinc_UGRG,428.2, hit,2,0
241,2, T_Scon, T_Scon_DGRG,295.7, hit,2,0
242,2, T_Sinc, T_Sinc_DRLR,491.1, hit,1,0
243,2, T_Scon, T_Scon_DGRG,266.5, hit,2,0
244,2, T_Scon, T_Scon_DGRG,357.9, incorrect,1,1
245,2, T_Sinc, T_Sinc_DRLR,525.4, hit,1,0
246,2, T_Sinc, T_Sinc_DRLR,336.8, hit,1,0
247,2, T_Sinc, T_Sinc_UGRG,432.3, hit,2,0
248,2, T_Sinc, T_Sinc_UGRG,279.7, hit,2,0
249,2, T_Sinc, T_Sinc_UGRG,319.2, hit,2,0
250,2, T_Sinc, T_Sinc_UGRG,362.6, hit,2,0
251,2, T_Sinc, T_Sinc_UGRG,310, hit,2,0
252,2, T_Sinc, T_Sinc_DRLR,297.2, hit,1,0
253,2, T_Scon, T_Scon_URLR,700.6, hit,1,0
254,2, T_Scon, T_Scon_URLR,288.1, hit,1,0
255,2, T_Sinc, T_Sinc_DRLR,275.4, hit,1,0
256,2, T_Sinc, T_Sinc_DRLR,266.9, hit,1,0
257,2, T_Sinc, T_Sinc_DRLR,242.3, hit,1,0
258,2, T_Sinc, T_Sinc_UGRG,185.8, incorrect,1,1
259,2, T_Scon, T_Scon_URLR,373.2, hit,1,0
260,2, T_Sinc, T_Sinc_DRLR,396.7, hit,1,0
261,2, T_Sinc, T_Sinc_UGRG,448.1, hit,2,0
262,2, T_Scon, T_Scon_URLR,411.6, hit,1,0
263,2, T_Scon, T_Scon_DGRG,418.9, hit,2,0
264,2, T_Sinc, T_Sinc_DRLR,466.4, hit,1,0
265,2, T_Sinc, T_Sinc_UGRG,521.8, hit,2,0
266,2, T_Sinc, T_Sinc_DRLR,429.3, hit,1,0
267,2, T_Scon, T_Scon_DGRG,456.7, hit,2,0
268,2, T_Sinc, T_Sinc_UGRG,524.2, hit,2,0
269,2, T_Scon, T_Scon_URLR,315.7, hit,1,0
270,2, T_Sinc, T_Sinc_UGRG,463, hit,2,0
271,2, T_Scon, T_Scon_DGRG,482.5, hit,2,0
272,2, T_Scon, T_Scon_DGRG,401.9, hit,2,0
273,2, T_Sinc, T_Sinc_DRLR,573.4, hit,1,0
274,2, T_Sinc, T_Sinc_DRLR,340.8, hit,1,0
275,2, T_Sinc, T_Sinc_DRLR,348.3, hit,1,0
276,2, T_Sinc, T_Sinc_DRLR,267.7, hit,1,0
277,2, T_Scon, T_Scon_URLR,515.2, hit,1,0
278,2, T_Sinc, T_Sinc_UGRG,382.5, incorrect,1,1
279,2, T_Scon, T_Scon_URLR,378, hit,1,0
280,2, T_Sinc, T_Sinc_DRLR,461.4, hit,1,0
281,2, T_Sinc, T_Sinc_UGRG,372.9, incorrect,1,1
282,2, T_Sinc, T_Sinc_DRLR,440.3, hit,1,0
283,2, T_Scon, T_Scon_URLR,383.8, hit,1,0
284,2, T_Sinc, T_Sinc_UGRG,367.2, incorrect,1,1
285,2, T_Sinc, T_Sinc_DRLR,562.6, hit,1,0
286,2, T_Sinc, T_Sinc_DRLR,302, hit,1,0
287,2, T_Sinc, T_Sinc_DRLR,357.5, hit,1,0
288,3, T_Sinc, T_Sinc_DRLR,390.6, hit,1,0
289,3, T_Scon, T_Scon_DGRG,366.1, hit,2,0
290,3, T_Scon, T_Scon_URLR,489.5, hit,1,0
291,3, T_Sinc, T_Sinc_DRLR,324.9, hit,1,0
292,3, T_Sinc, T_Sinc_UGRG,400.3, hit,2,0
293,3, T_Sinc, T_Sinc_DRLR,395.8, hit,1,0
294,3, T_Sinc, T_Sinc_DRLR,327.2, hit,1,0
295,3, T_Sinc, T_Sinc_UGRG,414.7, hit,2,0
296,3, T_Sinc, T_Sinc_UGRG,358.1, hit,2,0
297,3, T_Sinc, T_Sinc_UGRG,353.5, hit,2,0
298,3, T_Scon, T_Scon_DGRG,448.9, incorrect,1,1
299,3, T_Scon, T_Scon_URLR,488.4, hit,1,0
300,3, T_Sinc, T_Sinc_DRLR,403.8, hit,1,0
301,3, T_Sinc, T_Sinc_DRLR,459.3, hit,1,0
302,3, T_Sinc, T_Sinc_DRLR,566.7, hit,1,0
303,3, T_Scon, T_Scon_URLR,826.2, incorrect,2,1
304,3, T_Sinc, T_Sinc_DRLR,449.6, hit,1,0
305,3, T_Sinc, T_Sinc_UGRG,429, hit,2,0
306,3, T_Sinc, T_Sinc_DRLR,320.4, hit,1,0
307,3, T_Scon, T_Scon_DGRG,415.9, incorrect,1,1
308,3, T_Sinc, T_Sinc_UGRG,435.4, hit,2,0
309,3, T_Sinc, T_Sinc_UGRG,402.8, hit,2,0
310,3, T_Scon, T_Scon_URLR,666.3, hit,1,0
311,3, T_Sinc, T_Sinc_UGRG,373.7, incorrect,1,1
312,3, T_Scon, T_Scon_DGRG,273.1, hit,2,0
313,3, T_Sinc, T_Sinc_UGRG,380.5, hit,2,0
314,3, T_Sinc, T_Sinc_DRLR,671.9, hit,1,0
315,3, T_Sinc, T_Sinc_DRLR,387.4, hit,1,0
316,3, T_Sinc, T_Sinc_UGRG,370.9, hit,2,0
317,3, T_Sinc, T_Sinc_DRLR,414.3, hit,1,0
318,3, T_Sinc, T_Sinc_UGRG,425.8, hit,2,0
319,3, T_Scon, T_Scon_DGRG,365.2, hit,2,0
320,3, T_Sinc, T_Sinc_DRLR,508.5, hit,1,0
321,3, T_Scon, T_Scon_URLR,616, hit,1,0
322,3, T_Sinc, T_Sinc_DRLR,363.5, hit,1,0
323,3, T_Sinc, T_Sinc_UGRG,486.9, hit,2,0
324,3, T_Sinc, T_Sinc_DRLR,406.1, hit,1,0
325,3, T_Sinc, T_Sinc_DRLR,249.4, hit,1,0
326,3, T_Sinc, T_Sinc_DRLR,412.9, hit,1,0
327,3, T_Sinc, T_Sinc_DRLR,288.3, hit,1,0
328,3, T_Scon, T_Scon_URLR,331.8, hit,1,0
329,3, T_Scon, T_Scon_DGRG,287.2, incorrect,1,1
330,3, T_Scon, T_Scon_URLR,370.7, hit,1,0
331,3, T_Sinc, T_Sinc_DRLR,270.2, hit,1,0
332,3, T_Sinc, T_Sinc_DRLR,309.5, hit,1,0
333,3, T_Sinc, T_Sinc_DRLR,345, hit,1,0
334,3, T_Sinc, T_Sinc_UGRG,408.5, hit,2,0
335,3, T_Sinc, T_Sinc_DRLR,351.9, hit,1,0
336,3, T_Sinc, T_Sinc_DRLR,267.3, hit,1,0
337,3, T_Scon, T_Scon_DGRG,326.8, incorrect,1,1
338,3, T_Sinc, T_Sinc_UGRG,326.2, hit,2,0
339,3, T_Sinc, T_Sinc_DRLR,373.6, hit,1,0
340,3, T_Sinc, T_Sinc_UGRG,369, incorrect,1,1
341,3, T_Sinc, T_Sinc_UGRG,664.5, hit,2,0
342,3, T_Sinc, T_Sinc_DRLR,475.9, hit,1,0
343,3, T_Sinc, T_Sinc_UGRG,415.4, hit,2,0
344,3, T_Sinc, T_Sinc_UGRG,366.8, hit,2,0
345,3, T_Scon, T_Scon_URLR,434.3, hit,1,0
346,3, T_Sinc, T_Sinc_DRLR,313.6, hit,1,0
347,3, T_Sinc, T_Sinc_UGRG,353.2, hit,2,0
348,3, T_Sinc, T_Sinc_DRLR,396.5, hit,1,0
349,3, T_Sinc, T_Sinc_DRLR,400, hit,1,0
350,3, T_Sinc, T_Sinc_DRLR,435.4, hit,1,0
351,3, T_Sinc, T_Sinc_DRLR,422.9, hit,1,0
352,3, T_Sinc, T_Sinc_DRLR,482.2, hit,1,0
353,3, T_Sinc, T_Sinc_DRLR,429.8, hit,1,0
354,3, T_Sinc, T_Sinc_DRLR,589.2, hit,1,0
355,3, T_Sinc, T_Sinc_UGRG,596.6, hit,2,0
356,3, T_Scon, T_Scon_URLR,464, hit,1,0
357,3, T_Sinc, T_Sinc_DRLR,475.5, hit,1,0
358,3, T_Sinc, T_Sinc_DRLR,490.9, incorrect,2,1
359,3, T_Scon, T_Scon_URLR,446.4, incorrect,2,1
360,3, T_Sinc, T_Sinc_DRLR,369.6, hit,1,0
361,3, T_Sinc, T_Sinc_DRLR,316.9, hit,1,0
362,3, T_Sinc, T_Sinc_DRLR,288.4, hit,1,0
363,3, T_Scon, T_Scon_URLR,487.8, hit,1,0
364,3, T_Sinc, T_Sinc_DRLR,291.3, hit,1,0
365,3, T_Sinc, T_Sinc_UGRG,534.7, hit,2,0
366,3, T_Sinc, T_Sinc_UGRG,266.2, hit,2,0
367,3, T_Sinc, T_Sinc_UGRG,353.6, hit,2,0
368,3, T_Sinc, T_Sinc_UGRG,269, hit,2,0
369,3, T_Sinc, T_Sinc_UGRG,304.4, hit,2,0
370,3, T_Sinc, T_Sinc_UGRG,283.9, hit,2,0
371,3, T_Sinc, T_Sinc_DRLR,387.3, hit,1,0
372,3, T_Sinc, T_Sinc_DRLR,314.8, hit,1,0
373,3, T_Scon, T_Scon_DGRG,478.2, hit,2,0
374,3, T_Sinc, T_Sinc_UGRG,365.7, hit,2,0
375,3, T_Sinc, T_Sinc_DRLR,405, hit,1,0
376,3, T_Sinc, T_Sinc_UGRG,480.5, hit,2,0
377,3, T_Sinc, T_Sinc_UGRG,339.9, hit,2,0
378,3, T_Sinc, T_Sinc_UGRG,331.4, hit,2,0
379,3, T_Sinc, T_Sinc_UGRG,370.8, hit,2,0
380,3, T_Scon, T_Scon_DGRG,350.3, hit,2,0
381,3, T_Sinc, T_Sinc_UGRG,329.7, hit,2,0
382,3, T_Sinc, T_Sinc_UGRG,353.1, hit,2,0
383,3, T_Sinc, T_Sinc_DRLR,324.5, incorrect,2,1
384,3, T_Sinc, T_Sinc_UGRG,352, hit,2,0
385,3, T_Sinc, T_Sinc_UGRG,259.4, hit,2,0
386,3, T_Sinc, T_Sinc_UGRG,22.9, hit,2,3
387,3, T_Sinc, T_Sinc_UGRG,290.3, hit,2,0
388,3, T_Sinc, T_Sinc_UGRG,293.8, hit,2,0
389,3, T_Scon, T_Scon_DGRG,357.2, hit,2,0
390,3, T_Sinc, T_Sinc_UGRG,324.6, hit,2,0
391,3, T_Sinc, T_Sinc_UGRG,440, hit,2,0
392,3, T_Scon, T_Scon_DGRG,323.5, hit,2,0
393,3, T_Sinc, T_Sinc_DRLR,326.9, incorrect,2,1
394,3, T_Sinc, T_Sinc_UGRG,454.4, hit,2,0
395,3, T_Scon, T_Scon_URLR,497.8, hit,1,0
396,3, T_Scon, T_Scon_DGRG,301, incorrect,1,1
397,3, T_Scon, T_Scon_DGRG,404.4, hit,2,0
398,3, T_Sinc, T_Sinc_UGRG,391.8, hit,2,0
399,3, T_Sinc, T_Sinc_UGRG,279.3, hit,2,0
400,3, T_Sinc, T_Sinc_DRLR,346.7, hit,1,0
401,3, T_Scon, T_Scon_DGRG,346.2, incorrect,1,1
402,3, T_Sinc, T_Sinc_DRLR,333.6, incorrect,2,1
403,3, T_Scon, T_Scon_DGRG,377, hit,2,0
404,3, T_Sinc, T_Sinc_DRLR,480.4, hit,1,0
405,3, T_Sinc, T_Sinc_DRLR,323.9, hit,1,0
406,3, T_Scon, T_Scon_DGRG,407.3, hit,2,0
407,3, T_Scon, T_Scon_URLR,474.8, hit,1,0
408,3, T_Sinc, T_Sinc_DRLR,278.2, hit,1,0
409,3, T_Sinc, T_Sinc_UGRG,425.7, hit,2,0
410,3, T_Sinc, T_Sinc_UGRG,349, hit,2,0
411,3, T_Sinc, T_Sinc_DRLR,512.5, hit,1,0
412,3, T_Sinc, T_Sinc_UGRG,399.9, hit,2,0
413,3, T_Sinc, T_Sinc_UGRG,355.4, hit,2,0
414,3, T_Scon, T_Scon_URLR,574.8, hit,1,0
415,3, T_Scon, T_Scon_URLR,370.3, hit,1,0
416,3, T_Sinc, T_Sinc_UGRG,493.7, hit,2,0
417,3, T_Sinc, T_Sinc_UGRG,585.1, hit,2,0
418,3, T_Scon, T_Scon_DGRG,500.5, hit,2,0
419,3, T_Scon, T_Scon_URLR,528, hit,1,0
420,3, T_Scon, T_Scon_URLR,623.4, hit,1,0
421,3, T_Sinc, T_Sinc_UGRG,498.9, hit,2,0
422,3, T_Sinc, T_Sinc_UGRG,370.3, hit,2,0
423,3, T_Sinc, T_Sinc_DRLR,101.8, incorrect,2,1
424,3, T_Sinc, T_Sinc_UGRG,401.1, hit,2,0
425,3, T_Sinc, T_Sinc_DRLR,284.6, hit,1,0
426,3, T_Sinc, T_Sinc_UGRG,412.1, hit,2,0
427,3, T_Sinc, T_Sinc_UGRG,511.5, hit,2,0
428,3, T_Sinc, T_Sinc_DRLR,419, hit,1,0
429,3, T_Scon, T_Scon_URLR,506.4, hit,1,0
430,3, T_Sinc, T_Sinc_DRLR,345.9, hit,1,0
431,3, T_Scon, T_Scon_DGRG,493.3, hit,2,0
432,4, T_Scon, T_Scon_URLR,379.7, hit,1,0
433,4, T_Sinc, T_Sinc_UGRG,315.1, incorrect,1,1
434,4, T_Scon, T_Scon_URLR,354.5, hit,1,0
435,4, T_Sinc, T_Sinc_UGRG,358, hit,2,0
436,4, T_Scon, T_Scon_URLR,345.4, hit,1,0
437,4, T_Scon, T_Scon_DGRG,528.9, hit,2,0
438,4, T_Sinc, T_Sinc_DRLR,396.3, hit,1,0
439,4, T_Scon, T_Scon_DGRG,375.8, hit,2,0
440,4, T_Sinc, T_Sinc_DRLR,395.1, hit,1,0
441,4, T_Scon, T_Scon_DGRG,350.5, hit,2,0
442,4, T_Scon, T_Scon_URLR,378, hit,1,0
443,4, T_Scon, T_Scon_URLR,333.5, hit,1,0
444,4, T_Scon, T_Scon_DGRG,276.9, hit,2,0
445,4, T_Scon, T_Scon_URLR,316.4, hit,1,0
446,4, T_Scon, T_Scon_URLR,355.8, hit,1,0
447,4, T_Scon, T_Scon_URLR,383.3, hit,1,0
448,4, T_Scon, T_Scon_DGRG,314.6, hit,2,0
449,4, T_Scon, T_Scon_URLR,350.1, hit,1,0
450,4, T_Scon, T_Scon_URLR,409.5, hit,1,0
451,4, T_Scon, T_Scon_URLR,341, hit,1,0
452,4, T_Scon, T_Scon_DGRG,344.4, hit,2,0
453,4, T_Scon, T_Scon_URLR,483.9, hit,1,0
454,4, T_Scon, T_Scon_DGRG,479.2, hit,2,0
455,4, T_Scon, T_Scon_URLR,362.7, hit,1,0
456,4, T_Scon, T_Scon_DGRG,302.1, hit,2,0
457,4, T_Scon, T_Scon_DGRG,365.6, hit,2,0
458,4, T_Scon, T_Scon_DGRG,293, hit,2,0
459,4, T_Scon, T_Scon_DGRG,252.5, hit,2,0
460,4, T_Scon, T_Scon_URLR,307.9, hit,1,0
461,4, T_Scon, T_Scon_URLR,363.4, hit,1,0
462,4, T_Scon, T_Scon_DGRG,354.8, incorrect,1,1
463,4, T_Scon, T_Scon_DGRG,470.2, hit,2,0
464,4, T_Scon, T_Scon_DGRG,297.7, incorrect,1,1
465,4, T_Sinc, T_Sinc_UGRG,517.1, hit,2,0
466,4, T_Sinc, T_Sinc_UGRG,352.5, hit,2,0
467,4, T_Sinc, T_Sinc_DRLR,404, hit,1,0
468,4, T_Sinc, T_Sinc_DRLR,395.2, hit,1,0
469,4, T_Scon, T_Scon_URLR,458.5, hit,1,0
470,4, T_Sinc, T_Sinc_DRLR,310, hit,1,0
471,4, T_Sinc, T_Sinc_DRLR,361.4, hit,1,0
472,4, T_Scon, T_Scon_DGRG,516.9, hit,2,0
473,4, T_Scon, T_Scon_DGRG,312.3, hit,2,0
474,4, T_Scon, T_Scon_URLR,1047.8, hit,1,2
475,4, T_Scon, T_Scon_DGRG,547.1, hit,2,0
476,4, T_Scon, T_Scon_URLR,406.6, hit,1,0
477,4, T_Scon, T_Scon_DGRG,502, hit,2,0
478,4, T_Scon, T_Scon_URLR,373.5, hit,1,0
479,4, T_Scon, T_Scon_URLR,416.9, hit,1,0
480,4, T_Scon, T_Scon_URLR,340.4, hit,1,0
481,4, T_Sinc, T_Sinc_DRLR,407.8, hit,1,0
482,4, T_Scon, T_Scon_DGRG,555.3, hit,2,0
483,4, T_Scon, T_Scon_DGRG,338.6, hit,2,0
484,4, T_Scon, T_Scon_DGRG,310.1, hit,2,0
485,4, T_Scon, T_Scon_URLR,421.5, hit,1,0
486,4, T_Scon, T_Scon_URLR,373, hit,1,0
487,4, T_Sinc, T_Sinc_UGRG,356.4, hit,2,0
488,4, T_Scon, T_Scon_DGRG,255.9, hit,2,0
489,4, T_Sinc, T_Sinc_DRLR,531.3, hit,1,0
490,4, T_Scon, T_Scon_URLR,306.8, hit,1,0
491,4, T_Scon, T_Scon_DGRG,398.1, hit,2,0
492,4, T_Scon, T_Scon_DGRG,273.6, hit,2,0
493,4, T_Scon, T_Scon_URLR,445, hit,1,0
494,4, T_Sinc, T_Sinc_DRLR,488.5, hit,1,0
495,4, T_Scon, T_Scon_URLR,399.9, hit,1,0
496,4, T_Scon, T_Scon_DGRG,431.4, hit,2,0
497,4, T_Scon, T_Scon_DGRG,434.8, hit,2,0
498,4, T_Sinc, T_Sinc_UGRG,382.2, hit,2,0
499,4, T_Scon, T_Scon_URLR,513.6, hit,1,0
500,4, T_Scon, T_Scon_DGRG,533.1, hit,2,0
501,4, T_Sinc, T_Sinc_UGRG,416.5, hit,2,0
502,4, T_Scon, T_Scon_DGRG,316, hit,2,0
503,4, T_Sinc, T_Sinc_DRLR,383.4, hit,1,0
504,4, T_Sinc, T_Sinc_DRLR,310.6, hit,1,0
505,4, T_Sinc, T_Sinc_UGRG,322, hit,2,0
506,4, T_Scon, T_Scon_DGRG,405.4, hit,2,0
507,4, T_Scon, T_Scon_DGRG,296.9, hit,2,0
508,4, T_Sinc, T_Sinc_UGRG,312.3, incorrect,1,1
509,4, T_Scon, T_Scon_DGRG,331.8, incorrect,1,1
510,4, T_Scon, T_Scon_DGRG,271.1, hit,2,0
511,4, T_Scon, T_Scon_DGRG,282.6, hit,2,0
512,4, T_Scon, T_Scon_DGRG,266, hit,2,0
513,4, T_Scon, T_Scon_DGRG,309.5, hit,2,0
514,4, T_Sinc, T_Sinc_UGRG,356.9, hit,2,0
515,4, T_Scon, T_Scon_DGRG,264.4, hit,2,0
516,4, T_Scon, T_Scon_URLR,459.8, hit,1,0
517,4, T_Scon, T_Scon_URLR,411.3, hit,1,0
518,4, T_Scon, T_Scon_URLR,398.6, hit,1,0
519,4, T_Scon, T_Scon_DGRG,410.1, hit,2,0
520,4, T_Scon, T_Scon_URLR,497.5, hit,1,0
521,4, T_Scon, T_Scon_DGRG,369, hit,2,0
522,4, T_Scon, T_Scon_URLR,460.5, hit,1,0
523,4, T_Scon, T_Scon_URLR,407.9, hit,1,0
524,4, T_Scon, T_Scon_DGRG,351.3, hit,2,0
525,4, T_Scon, T_Scon_DGRG,378.7, hit,2,0
526,4, T_Scon, T_Scon_URLR,558.1, hit,1,0
527,4, T_Sinc, T_Sinc_DRLR,437.6, hit,1,0
528,4, T_Scon, T_Scon_URLR,421, hit,1,0
529,4, T_Sinc, T_Sinc_DRLR,452.5, hit,1,0
530,4, T_Scon, T_Scon_URLR,1139.9, hit,1,2
531,4, T_Sinc, T_Sinc_UGRG,511.4, hit,2,0
532,4, T_Scon, T_Scon_URLR,382.8, hit,1,0
533,4, T_Scon, T_Scon_URLR,514.2, hit,1,0
534,4, T_Sinc, T_Sinc_UGRG,557.7, hit,2,0
535,4, T_Scon, T_Scon_DGRG,533.1, hit,2,0
536,4, T_Scon, T_Scon_DGRG,440.5, hit,2,0
537,4, T_Scon, T_Scon_DGRG,312, hit,2,0
538,4, T_Scon, T_Scon_URLR,399.4, hit,1,0
539,4, T_Sinc, T_Sinc_UGRG,410.9, hit,2,0
540,4, T_Scon, T_Scon_URLR,394.1, incorrect,2,1
541,4, T_Scon, T_Scon_DGRG,421.4, hit,2,0
542,4, T_Scon, T_Scon_DGRG,392.9, hit,2,0
543,4, T_Scon, T_Scon_DGRG,360.3, hit,2,0
544,4, T_Scon, T_Scon_URLR,359.7, hit,1,0
545,4, T_Scon, T_Scon_URLR,339.1, hit,1,0
546,4, T_Scon, T_Scon_URLR,462.6, hit,1,0
547,4, T_Scon, T_Scon_DGRG,522, hit,2,0
548,4, T_Sinc, T_Sinc_UGRG,413.5, hit,2,0
549,4, T_Sinc, T_Sinc_DRLR,552.9, hit,1,0
550,4, T_Scon, T_Scon_DGRG,428.4, hit,2,0
551,4, T_Sinc, T_Sinc_UGRG,411.7, hit,2,0
552,4, T_Scon, T_Scon_DGRG,423.3, hit,2,0
553,4, T_Sinc, T_Sinc_UGRG,410.6, hit,2,0
554,4, T_Scon, T_Scon_URLR,502.1, hit,1,0
555,4, T_Scon, T_Scon_URLR,593.5, hit,1,0
556,4, T_Sinc, T_Sinc_DRLR,469, hit,1,0
557,4, T_Sinc, T_Sinc_UGRG,420.4, hit,2,0
558,4, T_Scon, T_Scon_DGRG,379.9, hit,2,0
559,4, T_Sinc, T_Sinc_DRLR,391.3, hit,1,0
560,4, T_Sinc, T_Sinc_UGRG,414.8, hit,2,0
561,4, T_Scon, T_Scon_DGRG,518.1, hit,2,0
562,4, T_Scon, T_Scon_URLR,537.6, hit,1,0
563,4, T_Scon, T_Scon_DGRG,517, hit,2,0
564,4, T_Scon, T_Scon_URLR,752.5, hit,1,0
565,4, T_Scon, T_Scon_DGRG,395.9, hit,2,0
566,4, T_Scon, T_Scon_URLR,431.4, hit,1,0
567,4, T_Scon, T_Scon_URLR,730.8, hit,1,0
568,4, T_Scon, T_Scon_URLR,426.2, hit,1,0
569,4, T_Sinc, T_Sinc_DRLR,493.6, hit,1,0
570,4, T_Scon, T_Scon_DGRG,953.1, hit,2,2
571,4, T_Scon, T_Scon_URLR,420.6, hit,1,0
572,4, T_Scon, T_Scon_URLR,440, hit,1,0
573,4, T_Scon, T_Scon_URLR,587.5, hit,1,0
574,4, T_Sinc, T_Sinc_DRLR,546.9, incorrect,2,1
575,4, T_Scon, T_Scon_URLR,658.3, hit,1,0
576,5, T_Scon, T_Scon_DGRG,409.3, hit,2,0
577,5, T_Scon, T_Scon_URLR,476.8, hit,1,0
578,5, T_Scon, T_Scon_URLR,312.2, hit,1,0
579,5, T_Sinc, T_Sinc_DRLR,363.7, incorrect,2,1
580,5, T_Scon, T_Scon_DGRG,391.1, hit,2,0
581,5, T_Scon, T_Scon_URLR,498.5, hit,1,0
582,5, T_Scon, T_Scon_URLR,350, hit,1,0
583,5, T_Scon, T_Scon_URLR,385.4, hit,1,0
584,5, T_Scon, T_Scon_DGRG,296.9, hit,2,0
585,5, T_Scon, T_Scon_URLR,464.3, hit,1,0
586,5, T_Scon, T_Scon_DGRG,315.8, hit,2,0
587,5, T_Scon, T_Scon_DGRG,199.2, incorrect,1,1
588,5, T_Scon, T_Scon_DGRG,430.6, hit,2,0
589,5, T_Scon, T_Scon_DGRG,330, hit,2,0
590,5, T_Scon, T_Scon_DGRG,317.5, hit,2,0
591,5, T_Scon, T_Scon_URLR,352.9, hit,1,0
592,5, T_Scon, T_Scon_DGRG,368.4, hit,2,0
593,5, T_Scon, T_Scon_DGRG,407.8, hit,2,0
594,5, T_Scon, T_Scon_URLR,139.2, incorrect,2,1
595,5, T_Scon, T_Scon_DGRG,478.6, hit,2,0
596,5, T_Sinc, T_Sinc_DRLR,662.1, hit,1,0
597,5, T_Scon, T_Scon_DGRG,769.5, hit,2,0
598,5, T_Scon, T_Scon_DGRG,773, incorrect,1,1
599,5, T_Scon, T_Scon_URLR,412.4, incorrect,2,1
600,5, T_Scon, T_Scon_URLR,423.8, hit,1,0
601,5, T_Scon, T_Scon_DGRG,567.2, hit,2,0
602,5, T_Sinc, T_Sinc_UGRG,350.8, hit,2,0
603,5, T_Scon, T_Scon_DGRG,286.1, hit,2,0
604,5, T_Sinc, T_Sinc_DRLR,381.6, hit,1,0
605,5, T_Sinc, T_Sinc_UGRG,329, incorrect,1,1
606,5, T_Sinc, T_Sinc_DRLR,444.5, hit,1,0
607,5, T_Scon, T_Scon_DGRG,359.9, hit,2,0
608,5, T_Scon, T_Scon_DGRG,323.3, hit,2,0
609,5, T_Scon, T_Scon_DGRG,334.7, hit,2,0
610,5, T_Scon, T_Scon_URLR,554.2, hit,1,0
611,5, T_Scon, T_Scon_DGRG,457.6, hit,2,0
612,5, T_Scon, T_Scon_DGRG,360.8, hit,2,0
613,5, T_Scon, T_Scon_URLR,408.3, hit,1,0
614,5, T_Sinc, T_Sinc_DRLR,395.6, hit,1,0
615,5, T_Scon, T_Scon_URLR,303.1, hit,1,0
616,5, T_Scon, T_Scon_URLR,246.5, hit,1,0
617,5, T_Sinc, T_Sinc_DRLR,302, hit,1,0
618,5, T_Sinc, T_Sinc_UGRG,297.4, hit,2,0
619,5, T_Sinc, T_Sinc_UGRG,348.9, hit,2,0
620,5, T_Scon, T_Scon_URLR,392.3, hit,1,0
621,5, T_Scon, T_Scon_DGRG,323.7, hit,2,0
622,5, T_Scon, T_Scon_DGRG,359.2, incorrect,1,1
623,5, T_Scon, T_Scon_URLR,386.5, hit,1,0
624,5, T_Scon, T_Scon_DGRG,438, hit,2,0
625,5, T_Scon, T_Scon_DGRG,393.4, hit,2,0
626,5, T_Scon, T_Scon_URLR,1356.9, incorrect,2,1
627,5, T_Scon, T_Scon_DGRG,728.3, hit,2,0
628,5, T_Sinc, T_Sinc_DRLR,387.7, hit,1,0
629,5, T_Scon, T_Scon_DGRG,279.2, incorrect,1,1
630,5, T_Scon, T_Scon_URLR,354.6, hit,1,0
631,5, T_Sinc, T_Sinc_UGRG,510, hit,2,0
632,5, T_Scon, T_Scon_URLR,725.5, hit,1,0
633,5, T_Scon, T_Scon_URLR,332.9, hit,1,0
634,5, T_Sinc, T_Sinc_UGRG,40.4, incorrect,1,1
635,5, T_Scon, T_Scon_URLR,475.8, incorrect,2,1
636,5, T_Scon, T_Scon_DGRG,595.2, incorrect,1,1
637,5, T_Scon, T_Scon_URLR,970.7, hit,1,2
638,5, T_Scon, T_Scon_DGRG,358.1, hit,2,0
639,5, T_Sinc, T_Sinc_UGRG,333.5, hit,2,0
640,5, T_Scon, T_Scon_DGRG,321, hit,2,0
641,5, T_Sinc, T_Sinc_DRLR,412.4, hit,1,0
642,5, T_Scon, T_Scon_URLR,419.9, hit,1,0
643,5, T_Scon, T_Scon_URLR,695.3, hit,1,0
644,5, T_Scon, T_Scon_DGRG,514.7, hit,2,0
645,5, T_Scon, T_Scon_URLR,0.1, miss,1656904,1
646,5, T_Scon, T_Scon_URLR,1365.6, hit,1,2
647,5, T_Scon, T_Scon_URLR,473, hit,1,0
648,5, T_Scon, T_Scon_DGRG,304.2, incorrect,1,1
649,5, T_Scon, T_Scon_DGRG,447.6, hit,2,0
650,5, T_Sinc, T_Sinc_UGRG,363, hit,2,0
651,5, T_Scon, T_Scon_URLR,326.5, incorrect,2,1
652,5, T_Scon, T_Scon_URLR,418, hit,1,0
653,5, T_Scon, T_Scon_DGRG,521.4, hit,2,0
654,5, T_Scon, T_Scon_DGRG,336.9, hit,2,0
655,5, T_Sinc, T_Sinc_DRLR,364.3, hit,1,0
656,5, T_Sinc, T_Sinc_DRLR,367.7, hit,1,0
657,5, T_Sinc, T_Sinc_DRLR,675.2, hit,1,0
658,5, T_Scon, T_Scon_URLR,358.6, hit,1,0
659,5, T_Sinc, T_Sinc_UGRG,698, hit,2,0
660,5, T_Scon, T_Scon_DGRG,381.5, hit,2,0
661,5, T_Scon, T_Scon_URLR,424.9, hit,1,0
662,5, T_Scon, T_Scon_URLR,1268.4, hit,1,2
663,5, T_Scon, T_Scon_URLR,343.8, hit,1,0
664,5, T_Scon, T_Scon_URLR,235.2, hit,1,0
665,5, T_Sinc, T_Sinc_UGRG,370.6, hit,2,0
666,5, T_Scon, T_Scon_URLR,394.1, hit,1,0
667,5, T_Scon, T_Scon_DGRG,361.5, incorrect,1,1
668,5, T_Scon, T_Scon_DGRG,305, hit,2,0
669,5, T_Scon, T_Scon_URLR,384.4, hit,1,0
670,5, T_Scon, T_Scon_DGRG,887.9, hit,2,2
671,5, T_Scon, T_Scon_DGRG,387.3, hit,2,0
672,5, T_Scon, T_Scon_DGRG,294.7, hit,2,0
673,5, T_Sinc, T_Sinc_UGRG,358.1, hit,2,0
674,5, T_Scon, T_Scon_DGRG,485.6, hit,2,0
675,5, T_Scon, T_Scon_DGRG,325, incorrect,1,1
676,5, T_Sinc, T_Sinc_UGRG,376.5, hit,2,0
677,5, T_Scon, T_Scon_URLR,595.8, incorrect,2,1
678,5, T_Sinc, T_Sinc_UGRG,363.4, incorrect,1,1
679,5, T_Sinc, T_Sinc_DRLR,402.7, hit,1,0
680,5, T_Sinc, T_Sinc_UGRG,446.2, hit,2,0
681,5, T_Scon, T_Scon_URLR,497.6, hit,1,0
682,5, T_Scon, T_Scon_DGRG,349.1, incorrect,1,1
683,5, T_Sinc, T_Sinc_UGRG,376.5, incorrect,1,1
684,5, T_Scon, T_Scon_URLR,343.7, incorrect,2,1
685,5, T_Scon, T_Scon_DGRG,331.1, incorrect,1,1
686,5, T_Scon, T_Scon_DGRG,374.5, hit,2,0
687,5, T_Sinc, T_Sinc_UGRG,378, hit,2,0
688,5, T_Scon, T_Scon_URLR,381.4, hit,1,0
689,5, T_Scon, T_Scon_URLR,336.9, hit,1,0
690,5, T_Sinc, T_Sinc_DRLR,416.3, hit,1,0
691,5, T_Scon, T_Scon_DGRG,379.7, hit,2,0
692,5, T_Scon, T_Scon_URLR,359.1, hit,1,0
693,5, T_Scon, T_Scon_DGRG,466.6, hit,2,0
694,5, T_Sinc, T_Sinc_DRLR,678, hit,1,0
695,5, T_Scon, T_Scon_URLR,1097.5, incorrect,2,1
696,5, T_Scon, T_Scon_DGRG,412.9, hit,2,0
697,5, T_Scon, T_Scon_DGRG,340.4, hit,2,0
698,5, T_Scon, T_Scon_DGRG,851.9, hit,2,0
699,5, T_Scon, T_Scon_URLR,851.2, hit,1,0
700,5, T_Scon, T_Scon_URLR,298.7, hit,1,0
701,5, T_Scon, T_Scon_URLR,1046.1, hit,1,2
702,5, T_Scon, T_Scon_URLR,1481.6, hit,1,2
703,5, T_Scon, T_Scon_URLR,405, hit,1,0
704,5, T_Sinc, T_Sinc_UGRG,1120.4, hit,2,2
705,5, T_Sinc, T_Sinc_DRLR,467.9, hit,1,0
706,5, T_Scon, T_Scon_DGRG,407.2, hit,2,0
707,5, T_Scon, T_Scon_DGRG,250.7, hit,2,0
708,5, T_Sinc, T_Sinc_DRLR,378.2, hit,1,0
709,5, T_Sinc, T_Sinc_DRLR,433.6, hit,1,0
710,5, T_Scon, T_Scon_URLR,317.1, hit,1,0
711,5, T_Scon, T_Scon_URLR,296.4, hit,1,0
712,5, T_Scon, T_Scon_URLR,412, hit,1,0
713,5, T_Scon, T_Scon_URLR,431.3, hit,1,0
714,5, T_Sinc, T_Sinc_DRLR,578.8, incorrect,2,1
715,5, T_Scon, T_Scon_URLR,354.2, hit,1,0
716,5, T_Scon, T_Scon_DGRG,345.7, hit,2,0
717,5, T_Sinc, T_Sinc_UGRG,369.1, hit,2,0
718,5, T_Scon, T_Scon_DGRG,336.6, hit,2,0
719,5, T_Scon, T_Scon_URLR,376, hit,1,0
720,6, T_Sinc, T_Sinc_UGRG,405.3, hit,2,0
721,6, T_Scon, T_Scon_URLR,360.6, hit,1,0
722,6, T_Sinc, T_Sinc_DRLR,388.1, hit,1,0
723,6, T_Scon, T_Scon_URLR,451.5, hit,1,0
724,6, T_Scon, T_Scon_URLR,287, hit,1,0
725,6, T_Scon, T_Scon_URLR,330.3, hit,1,0
726,6, T_Sinc, T_Sinc_UGRG,421.8, hit,2,0
727,6, T_Scon, T_Scon_URLR,405.2, hit,1,0
728,6, T_Scon, T_Scon_URLR,320.7, hit,1,0
729,6, T_Scon, T_Scon_DGRG,416.1, hit,2,0
730,6, T_Scon, T_Scon_DGRG,299.6, hit,2,0
731,6, T_Scon, T_Scon_DGRG,319, hit,2,0
732,6, T_Scon, T_Scon_URLR,350.5, hit,1,0
733,6, T_Scon, T_Scon_DGRG,421.8, hit,2,0
734,6, T_Scon, T_Scon_URLR,473.3, hit,1,0
735,6, T_Scon, T_Scon_DGRG,432.7, hit,2,0
736,6, T_Scon, T_Scon_URLR,424.2, hit,1,0
737,6, T_Sinc, T_Sinc_UGRG,419.6, incorrect,1,1
738,6, T_Scon, T_Scon_URLR,423.1, hit,1,0
739,6, T_Scon, T_Scon_URLR,446.5, hit,1,0
740,6, T_Scon, T_Scon_DGRG,414, hit,2,0
741,6, T_Scon, T_Scon_URLR,465.3, hit,1,0
742,6, T_Scon, T_Scon_URLR,340.8, hit,1,0
743,6, T_Scon, T_Scon_DGRG,400.2, hit,2,0
744,6, T_Scon, T_Scon_URLR,579.7, hit,1,0
745,6, T_Scon, T_Scon_DGRG,391.1, incorrect,1,1
746,6, T_Scon, T_Scon_URLR,574.6, hit,1,0
747,6, T_Scon, T_Scon_URLR,354, hit,1,0
748,6, T_Scon, T_Scon_DGRG,381.4, hit,2,0
749,6, T_Sinc, T_Sinc_UGRG,376.8, hit,2,0
750,6, T_Scon, T_Scon_DGRG,292.3, hit,2,0
751,6, T_Scon, T_Scon_DGRG,311.7, hit,2,0
752,6, T_Sinc, T_Sinc_UGRG,403.2, hit,2,0
753,6, T_Sinc, T_Sinc_UGRG,402.6, hit,2,0
754,6, T_Sinc, T_Sinc_UGRG,426.1, hit,2,0
755,6, T_Scon, T_Scon_URLR,489.5, hit,1,0
756,6, T_Scon, T_Scon_URLR,480.6, incorrect,2,1
757,6, T_Scon, T_Scon_URLR,340.1, hit,1,0
758,6, T_Sinc, T_Sinc_DRLR,447.5, hit,1,0
759,6, T_Scon, T_Scon_URLR,371, hit,1,0
760,6, T_Sinc, T_Sinc_DRLR,338.4, hit,1,0
761,6, T_Scon, T_Scon_URLR,633.8, hit,1,0
762,6, T_Scon, T_Scon_DGRG,557.2, hit,2,0
763,6, T_Scon, T_Scon_URLR,344.7, hit,1,0
764,6, T_Scon, T_Scon_DGRG,484.1, hit,2,0
765,6, T_Sinc, T_Sinc_DRLR,527.6, hit,1,0
766,6, T_Sinc, T_Sinc_DRLR,271, hit,1,0
767,6, T_Scon, T_Scon_URLR,482.4, hit,1,0
768,6, T_Sinc, T_Sinc_UGRG,465.9, hit,2,0
769,6, T_Scon, T_Scon_DGRG,365.3, hit,2,0
770,6, T_Scon, T_Scon_URLR,384.7, hit,1,0
771,6, T_Sinc, T_Sinc_UGRG,668.2, hit,2,0
772,6, T_Sinc, T_Sinc_UGRG,391.6, hit,2,0
773,6, T_Scon, T_Scon_DGRG,491.1, hit,2,0
774,6, T_Scon, T_Scon_URLR,522.5, hit,1,0
775,6, T_Sinc, T_Sinc_DRLR,662, incorrect,2,1
776,6, T_Scon, T_Scon_URLR,425.4, hit,1,0
777,6, T_Scon, T_Scon_URLR,388.8, hit,1,0
778,6, T_Sinc, T_Sinc_DRLR,436.2, hit,1,0
779,6, T_Sinc, T_Sinc_DRLR,311.7, hit,1,0
780,6, T_Sinc, T_Sinc_UGRG,315.1, incorrect,1,1
781,6, T_Sinc, T_Sinc_DRLR,662.6, incorrect,2,1
782,6, T_Scon, T_Scon_URLR,434, hit,1,0
783,6, T_Sinc, T_Sinc_DRLR,481.5, hit,1,0
784,6, T_Scon, T_Scon_DGRG,652.8, hit,2,0
785,6, T_Scon, T_Scon_URLR,576.3, hit,1,0
786,6, T_Scon, T_Scon_URLR,955.7, hit,1,2
787,6, T_Scon, T_Scon_DGRG,491.2, hit,2,0
788,6, T_Scon, T_Scon_DGRG,778.6, hit,2,0
789,6, T_Scon, T_Scon_DGRG,358.1, hit,2,0
790,6, T_Scon, T_Scon_DGRG,481.5, hit,2,0
791,6, T_Scon, T_Scon_DGRG,332.9, hit,2,0
792,6, T_Scon, T_Scon_DGRG,484.1, hit,2,0
793,6, T_Scon, T_Scon_URLR,423.5, hit,1,0
794,6, T_Sinc, T_Sinc_UGRG,379, hit,2,0
795,6, T_Sinc, T_Sinc_DRLR,390.3, hit,1,0
796,6, T_Scon, T_Scon_DGRG,513.8, hit,2,0
797,6, T_Scon, T_Scon_URLR,497.2, hit,1,0
798,6, T_Scon, T_Scon_DGRG,364.7, hit,2,0
799,6, T_Scon, T_Scon_DGRG,328.1, incorrect,1,1
800,6, T_Scon, T_Scon_DGRG,387.4, hit,2,0
801,6, T_Scon, T_Scon_URLR,359, hit,1,0
802,6, T_Scon, T_Scon_URLR,558.4, hit,1,0
803,6, T_Scon, T_Scon_DGRG,321.9, incorrect,1,1
804,6, T_Scon, T_Scon_DGRG,357.3, hit,2,0
805,6, T_Scon, T_Scon_DGRG,272.7, hit,2,0
806,6, T_Scon, T_Scon_DGRG,268.2, hit,2,0
807,6, T_Sinc, T_Sinc_DRLR,335.6, incorrect,2,1
808,6, T_Scon, T_Scon_DGRG,387.1, hit,2,0
809,6, T_Scon, T_Scon_URLR,430.5, hit,1,0
810,6, T_Scon, T_Scon_URLR,366, hit,1,0
811,6, T_Scon, T_Scon_URLR,345.3, hit,1,0
812,6, T_Sinc, T_Sinc_DRLR,404.8, hit,1,0
813,6, T_Sinc, T_Sinc_UGRG,364.2, hit,2,0
814,6, T_Scon, T_Scon_URLR,411.7, hit,1,0
815,6, T_Scon, T_Scon_DGRG,431.1, hit,2,0
816,6, T_Scon, T_Scon_DGRG,410.6, hit,2,0
817,6, T_Sinc, T_Sinc_DRLR,382, hit,1,0
818,6, T_Scon, T_Scon_DGRG,509.5, hit,2,0
819,6, T_Scon, T_Scon_URLR,604.8, hit,1,0
820,6, T_Sinc, T_Sinc_DRLR,856.3, hit,1,2
821,6, T_Scon, T_Scon_DGRG,771.7, hit,2,0
822,6, T_Scon, T_Scon_DGRG,1159.2, hit,2,2
823,6, T_Scon, T_Scon_DGRG,442.6, hit,2,0
824,6, T_Scon, T_Scon_URLR,410.1, hit,1,0
825,6, T_Scon, T_Scon_DGRG,453.5, hit,2,0
826,6, T_Scon, T_Scon_URLR,448.9, hit,1,0
827,6, T_Scon, T_Scon_URLR,344.3, hit,1,0
828,6, T_Scon, T_Scon_URLR,359.6, hit,1,0
829,6, T_Scon, T_Scon_URLR,347, hit,1,0
830,6, T_Scon, T_Scon_URLR,342.5, hit,1,0
831,6, T_Scon, T_Scon_DGRG,437.8, hit,2,0
832,6, T_Scon, T_Scon_URLR,377.3, hit,1,0
833,6, T_Scon, T_Scon_DGRG,308.7, hit,2,0
834,6, T_Scon, T_Scon_URLR,368.2, hit,1,0
835,6, T_Scon, T_Scon_DGRG,359.6, incorrect,1,1
836,6, T_Scon, T_Scon_DGRG,335.1, hit,2,0
837,6, T_Scon, T_Scon_URLR,386.5, hit,1,0
838,6, T_Scon, T_Scon_DGRG,393.9, hit,2,0
839,6, T_Scon, T_Scon_URLR,345.3, hit,1,0
840,6, T_Sinc, T_Sinc_UGRG,464.8, hit,2,0
841,6, T_Scon, T_Scon_DGRG,300.2, hit,2,0
842,6, T_Scon, T_Scon_DGRG,271.7, hit,2,0
843,6, T_Scon, T_Scon_DGRG,311.1, hit,2,0
844,6, T_Scon, T_Scon_DGRG,426.6, incorrect,1,1
845,6, T_Sinc, T_Sinc_UGRG,338, hit,2,0
846,6, T_Scon, T_Scon_DGRG,221.4, hit,2,0
847,6, T_Scon, T_Scon_DGRG,316.8, hit,2,0
848,6, T_Scon, T_Scon_URLR,404.3, hit,1,0
849,6, T_Scon, T_Scon_DGRG,371.7, hit,2,0
850,6, T_Sinc, T_Sinc_UGRG,411.2, hit,2,0
851,6, T_Sinc, T_Sinc_DRLR,434.6, hit,1,0
852,6, T_Sinc, T_Sinc_DRLR,478.1, hit,1,0
853,6, T_Sinc, T_Sinc_DRLR,589.4, hit,1,0
854,6, T_Scon, T_Scon_DGRG,472.9, hit,2,0
855,6, T_Scon, T_Scon_DGRG,396.3, hit,2,0
856,6, T_Scon, T_Scon_DGRG,287.8, hit,2,0
857,6, T_Scon, T_Scon_URLR,531.2, hit,1,0
858,6, T_Sinc, T_Sinc_UGRG,362.7, hit,2,0
859,6, T_Scon, T_Scon_URLR,374.1, hit,1,0
860,6, T_Scon, T_Scon_URLR,305.6, hit,1,0
861,6, T_Sinc, T_Sinc_UGRG,324.9, incorrect,1,1
862,6, T_Scon, T_Scon_DGRG,340.4, hit,2,0
863,6, T_Scon, T_Scon_URLR,339.8, hit,1,0
864,7, T_Sinc, T_Sinc_UGRG,428.7, hit,2,0
865,7, T_Sinc, T_Sinc_UGRG,288.1, hit,2,0
866,7, T_Sinc, T_Sinc_UGRG,267.5, hit,2,0
867,7, T_Sinc, T_Sinc_UGRG,235, hit,2,0
868,7, T_Scon, T_Scon_URLR,274.4, hit,1,0
869,7, T_Sinc, T_Sinc_DRLR,273.9, hit,1,0
870,7, T_Sinc, T_Sinc_DRLR,313.3, hit,1,0
871,7, T_Scon, T_Scon_DGRG,308.8, hit,2,0
872,7, T_Scon, T_Scon_DGRG,352.2, incorrect,1,1
873,7, T_Sinc, T_Sinc_UGRG,303.6, hit,2,0
874,7, T_Scon, T_Scon_URLR,603, hit,1,0
875,7, T_Sinc, T_Sinc_DRLR,278.5, hit,1,0
876,7, T_Sinc, T_Sinc_UGRG,401.9, hit,2,0
877,7, T_Scon, T_Scon_URLR,405.4, hit,1,0
878,7, T_Sinc, T_Sinc_UGRG,472.8, hit,2,0
879,7, T_Sinc, T_Sinc_DRLR,372.3, hit,1,0
880,7, T_Scon, T_Scon_URLR,535.7, hit,1,0
881,7, T_Scon, T_Scon_DGRG,547.1, hit,2,0
882,7, T_Sinc, T_Sinc_DRLR,534.5, hit,1,0
883,7, T_Scon, T_Scon_URLR,594.1, hit,1,0
884,7, T_Sinc, T_Sinc_UGRG,417.4, hit,2,0
885,7, T_Sinc, T_Sinc_DRLR,548.9, hit,1,0
886,7, T_Sinc, T_Sinc_DRLR,408.3, hit,1,0
887,7, T_Sinc, T_Sinc_DRLR,379.8, hit,1,0
888,7, T_Sinc, T_Sinc_DRLR,967.1, hit,1,2
889,7, T_Scon, T_Scon_DGRG,390.6, incorrect,1,1
890,7, T_Sinc, T_Sinc_UGRG,346, hit,2,0
891,7, T_Sinc, T_Sinc_UGRG,289.5, hit,2,0
892,7, T_Scon, T_Scon_URLR,428.9, hit,1,0
893,7, T_Sinc, T_Sinc_DRLR,420.4, hit,1,0
894,7, T_Scon, T_Scon_DGRG,263.8, incorrect,1,1
895,7, T_Sinc, T_Sinc_UGRG,331.3, hit,2,0
896,7, T_Sinc, T_Sinc_DRLR,414.6, hit,1,0
897,7, T_Scon, T_Scon_URLR,450.1, hit,1,0
898,7, T_Sinc, T_Sinc_DRLR,373.5, hit,1,0
899,7, T_Sinc, T_Sinc_DRLR,297, incorrect,2,1
900,7, T_Sinc, T_Sinc_DRLR,0.2, miss,1003608,1
901,7, T_Scon, T_Scon_URLR,0.1, miss,1024774,1
902,7, T_Sinc, T_Sinc_UGRG,555.1, hit,2,0
903,7, T_Sinc, T_Sinc_UGRG,318.4, hit,2,0
904,7, T_Sinc, T_Sinc_UGRG,325.9, hit,2,0
905,7, T_Sinc, T_Sinc_DRLR,393.3, hit,1,0
906,7, T_Scon, T_Scon_URLR,284.8, hit,1,0
907,7, T_Sinc, T_Sinc_UGRG,364.2, hit,2,0
908,7, T_Sinc, T_Sinc_DRLR,415.7, hit,1,0
909,7, T_Sinc, T_Sinc_DRLR,291, hit,1,0
910,7, T_Sinc, T_Sinc_DRLR,246.5, hit,1,0
911,7, T_Scon, T_Scon_DGRG,385.9, incorrect,1,1
912,7, T_Sinc, T_Sinc_UGRG,509.4, hit,2,0
913,7, T_Scon, T_Scon_URLR,432.8, hit,1,0
914,7, T_Sinc, T_Sinc_DRLR,372.3, hit,1,0
915,7, T_Sinc, T_Sinc_DRLR,495.7, hit,1,0
916,7, T_Sinc, T_Sinc_DRLR,419.1, hit,1,0
917,7, T_Scon, T_Scon_URLR,382.5, hit,1,0
918,7, T_Sinc, T_Sinc_UGRG,570, hit,2,0
919,7, T_Sinc, T_Sinc_DRLR,405.4, hit,1,0
920,7, T_Sinc, T_Sinc_UGRG,400.9, hit,2,0
921,7, T_Sinc, T_Sinc_DRLR,432.3, hit,1,0
922,7, T_Scon, T_Scon_DGRG,283.8, incorrect,1,1
923,7, T_Scon, T_Scon_DGRG,263.1, hit,2,0
924,7, T_Scon, T_Scon_DGRG,302.6, hit,2,0
925,7, T_Sinc, T_Sinc_DRLR,390, hit,1,0
926,7, T_Sinc, T_Sinc_UGRG,365.5, hit,2,0
927,7, T_Sinc, T_Sinc_UGRG,288.9, hit,2,0
928,7, T_Scon, T_Scon_URLR,368.4, incorrect,2,1
929,7, T_Sinc, T_Sinc_DRLR,303.8, hit,1,0
930,7, T_Sinc, T_Sinc_DRLR,359.3, hit,1,0
931,7, T_Sinc, T_Sinc_DRLR,402.6, hit,1,0
932,7, T_Scon, T_Scon_DGRG,266.1, incorrect,1,1
933,7, T_Sinc, T_Sinc_DRLR,505.6, hit,1,0
934,7, T_Sinc, T_Sinc_UGRG,541, hit,2,0
935,7, T_Sinc, T_Sinc_DRLR,484.4, hit,1,0
936,7, T_Sinc, T_Sinc_DRLR,267.7, hit,1,0
937,7, T_Scon, T_Scon_DGRG,243, incorrect,1,1
938,7, T_Sinc, T_Sinc_UGRG,354.5, hit,2,0
939,7, T_Sinc, T_Sinc_DRLR,397.9, hit,1,0
940,7, T_Sinc, T_Sinc_DRLR,297.3, hit,1,0
941,7, T_Sinc, T_Sinc_UGRG,296.8, incorrect,1,1
942,7, T_Sinc, T_Sinc_UGRG,372.2, hit,2,0
943,7, T_Sinc, T_Sinc_DRLR,359.6, hit,1,0
944,7, T_Sinc, T_Sinc_DRLR,439, hit,1,0
945,7, T_Sinc, T_Sinc_DRLR,358.5, hit,1,0
946,7, T_Sinc, T_Sinc_DRLR,293.9, hit,1,0
947,7, T_Sinc, T_Sinc_UGRG,425.4, hit,2,0
948,7, T_Sinc, T_Sinc_UGRG,408.9, hit,2,0
949,7, T_Scon, T_Scon_DGRG,372.3, hit,2,0
950,7, T_Sinc, T_Sinc_DRLR,543.8, hit,1,0
951,7, T_Sinc, T_Sinc_UGRG,467.1, hit,2,0
952,7, T_Sinc, T_Sinc_DRLR,410.6, hit,1,0
953,7, T_Scon, T_Scon_DGRG,630, incorrect,1,1
954,7, T_Sinc, T_Sinc_UGRG,481.5, hit,2,0
955,7, T_Sinc, T_Sinc_UGRG,304.9, hit,2,0
956,7, T_Sinc, T_Sinc_DRLR,364.4, hit,1,0
957,7, T_Scon, T_Scon_DGRG,375.8, incorrect,1,1
958,7, T_Sinc, T_Sinc_UGRG,455.2, hit,2,0
959,7, T_Sinc, T_Sinc_UGRG,386.6, hit,2,0
960,7, T_Sinc, T_Sinc_UGRG,370.1, hit,2,0
961,7, T_Sinc, T_Sinc_DRLR,437.5, hit,1,0
962,7, T_Sinc, T_Sinc_UGRG,473, hit,2,0
963,7, T_Scon, T_Scon_DGRG,388.4, hit,2,0
964,7, T_Sinc, T_Sinc_UGRG,339.9, hit,2,0
965,7, T_Scon, T_Scon_DGRG,363.2, hit,2,0
966,7, T_Sinc, T_Sinc_DRLR,654.7, hit,1,0
967,7, T_Scon, T_Scon_DGRG,550.1, hit,2,0
968,7, T_Sinc, T_Sinc_DRLR,425.6, hit,1,0
969,7, T_Scon, T_Scon_DGRG,413, incorrect,1,1
970,7, T_Sinc, T_Sinc_UGRG,504.5, hit,2,0
971,7, T_Sinc, T_Sinc_UGRG,387.9, hit,2,0
972,7, T_Sinc, T_Sinc_UGRG,423.1, hit,2,0
973,7, T_Sinc, T_Sinc_UGRG,322.5, hit,2,0
974,7, T_Sinc, T_Sinc_DRLR,361.9, hit,1,0
975,7, T_Sinc, T_Sinc_UGRG,397.4, hit,2,0
976,7, T_Scon, T_Scon_URLR,540.8, hit,1,0
977,7, T_Sinc, T_Sinc_UGRG,360.3, hit,2,0
978,7, T_Sinc, T_Sinc_DRLR,223.6, hit,1,0
979,7, T_Sinc, T_Sinc_UGRG,383.1, hit,2,0
980,7, T_Sinc, T_Sinc_DRLR,282.5, hit,1,0
981,7, T_Sinc, T_Sinc_UGRG,474, hit,2,0
982,7, T_Sinc, T_Sinc_UGRG,305.4, hit,2,0
983,7, T_Sinc, T_Sinc_DRLR,384.9, hit,1,0
984,7, T_Sinc, T_Sinc_DRLR,252.3, hit,1,0
985,7, T_Scon, T_Scon_URLR,503.8, hit,1,0
986,7, T_Sinc, T_Sinc_DRLR,335.1, hit,1,0
987,7, T_Sinc, T_Sinc_UGRG,306.6, hit,2,0
988,7, T_Sinc, T_Sinc_UGRG,430, hit,2,0
989,7, T_Scon, T_Scon_URLR,401.5, hit,1,0
990,7, T_Sinc, T_Sinc_UGRG,444.9, hit,2,0
991,7, T_Sinc, T_Sinc_DRLR,432.4, hit,1,0
992,7, T_Sinc, T_Sinc_DRLR,675.8, hit,1,0
993,7, T_Sinc, T_Sinc_DRLR,0.2, miss,3286642,1
994,7, T_Sinc, T_Sinc_DRLR,974.6, hit,1,2
995,7, T_Sinc, T_Sinc_UGRG,510.1, hit,2,0
996,7, T_Sinc, T_Sinc_UGRG,281.5, hit,2,0
997,7, T_Sinc, T_Sinc_DRLR,365, hit,1,0
998,7, T_Scon, T_Scon_URLR,328.4, incorrect,2,1
999,7, T_Sinc, T_Sinc_DRLR,267.9, hit,1,0
1000,7, T_Scon, T_Scon_URLR,239.2, hit,1,0
1001,7, T_Scon, T_Scon_URLR,314.7, hit,1,0
1002,7, T_Sinc, T_Sinc_UGRG,526.1, hit,2,0
1003,7, T_Sinc, T_Sinc_UGRG,345.6, hit,2,0
1004,7, T_Sinc, T_Sinc_UGRG,325, hit,2,0
1005,7, T_Sinc, T_Sinc_UGRG,336.5, hit,2,0
1006,7, T_Sinc, T_Sinc_UGRG,303.9, hit,2,0
1007,7, T_Sinc, T_Sinc_UGRG,339.4, hit,2,0
1008,8, T_Scon, T_Scon_URLR,375, hit,1,0
1009,8, T_Sinc, T_Sinc_UGRG,378.3, incorrect,1,1
1010,8, T_Sinc, T_Sinc_UGRG,453.8, hit,2,0
1011,8, T_Sinc, T_Sinc_DRLR,417.2, hit,1,0
1012,8, T_Scon, T_Scon_URLR,380.7, hit,1,0
1013,8, T_Sinc, T_Sinc_UGRG,352.1, hit,2,0
1014,8, T_Scon, T_Scon_DGRG,279.6, hit,2,0
1015,8, T_Sinc, T_Sinc_UGRG,286.9, hit,2,0
1016,8, T_Sinc, T_Sinc_UGRG,346.4, hit,2,0
1017,8, T_Sinc, T_Sinc_UGRG,341.8, hit,2,0
1018,8, T_Sinc, T_Sinc_UGRG,333.3, hit,2,0
1019,8, T_Sinc, T_Sinc_DRLR,452.7, hit,1,0
1020,8, T_Sinc, T_Sinc_UGRG,432.2, hit,2,0
1021,8, T_Sinc, T_Sinc_DRLR,347.6, hit,1,0
1022,8, T_Sinc, T_Sinc_DRLR,279, hit,1,0
1023,8, T_Sinc, T_Sinc_DRLR,298.4, hit,1,0
1024,8, T_Scon, T_Scon_DGRG,297.9, hit,2,0
1025,8, T_Sinc, T_Sinc_UGRG,421.3, hit,2,0
1026,8, T_Scon, T_Scon_URLR,308.8, incorrect,2,1
1027,8, T_Scon, T_Scon_DGRG,484.2, hit,2,0
1028,8, T_Sinc, T_Sinc_DRLR,367.7, hit,1,0
1029,8, T_Sinc, T_Sinc_DRLR,295.1, hit,1,0
1030,8, T_Sinc, T_Sinc_DRLR,282.5, hit,1,0
1031,8, T_Sinc, T_Sinc_UGRG,521.9, hit,2,0
1032,8, T_Scon, T_Scon_DGRG,317.4, hit,2,0
1033,8, T_Sinc, T_Sinc_DRLR,368.8, hit,1,0
1034,8, T_Sinc, T_Sinc_DRLR,556.3, hit,1,0
1035,8, T_Sinc, T_Sinc_DRLR,363.8, hit,1,0
1036,8, T_Scon, T_Scon_URLR,595.1, incorrect,2,1
1037,8, T_Scon, T_Scon_DGRG,394.6, hit,2,0
1038,8, T_Sinc, T_Sinc_DRLR,530, hit,1,0
1039,8, T_Sinc, T_Sinc_UGRG,353.5, hit,2,0
1040,8, T_Sinc, T_Sinc_DRLR,396.9, hit,1,0
1041,8, T_Sinc, T_Sinc_UGRG,240.4, hit,2,0
1042,8, T_Sinc, T_Sinc_DRLR,239.8, hit,1,0
1043,8, T_Scon, T_Scon_DGRG,467.3, hit,2,0
1044,8, T_Sinc, T_Sinc_UGRG,450.5, hit,2,0
1045,8, T_Sinc, T_Sinc_UGRG,293.8, hit,2,0
1046,8, T_Sinc, T_Sinc_DRLR,381.3, hit,1,0
1047,8, T_Scon, T_Scon_URLR,248.7, hit,1,0
1048,8, T_Sinc, T_Sinc_UGRG,404.2, hit,2,0
1049,8, T_Sinc, T_Sinc_UGRG,311.6, hit,2,0
1050,8, T_Scon, T_Scon_URLR,367.1, hit,1,0
1051,8, T_Scon, T_Scon_DGRG,74.4, incorrect,1,1
1052,8, T_Sinc, T_Sinc_DRLR,385.9, hit,1,0
1053,8, T_Sinc, T_Sinc_UGRG,481.3, hit,2,0
1054,8, T_Sinc, T_Sinc_UGRG,332.8, hit,2,0
1055,8, T_Sinc, T_Sinc_DRLR,400.2, hit,1,0
1056,8, T_Sinc, T_Sinc_DRLR,307.7, hit,1,0
1057,8, T_Sinc, T_Sinc_UGRG,407, hit,2,0
1058,8, T_Sinc, T_Sinc_DRLR,346.5, hit,1,0
1059,8, T_Sinc, T_Sinc_UGRG,461.9, hit,2,0
1060,8, T_Sinc, T_Sinc_DRLR,305.4, hit,1,0
1061,8, T_Scon, T_Scon_URLR,368.8, hit,1,0
1062,8, T_Scon, T_Scon_DGRG,396.3, hit,2,0
1063,8, T_Sinc, T_Sinc_DRLR,483.7, incorrect,2,1
1064,8, T_Sinc, T_Sinc_DRLR,283.1, hit,1,0
1065,8, T_Sinc, T_Sinc_UGRG,606.6, hit,2,0
1066,8, T_Sinc, T_Sinc_UGRG,410, hit,2,0
1067,8, T_Sinc, T_Sinc_DRLR,389.4, hit,1,0
1068,8, T_Sinc, T_Sinc_DRLR,400.9, hit,1,0
1069,8, T_Scon, T_Scon_DGRG,472.3, incorrect,1,1
1070,8, T_Sinc, T_Sinc_DRLR,435.8, hit,1,0
1071,8, T_Sinc, T_Sinc_UGRG,1207.2, incorrect,1,1
1072,8, T_Sinc, T_Sinc_DRLR,530.6, hit,1,0
1073,8, T_Sinc, T_Sinc_UGRG,710, hit,2,0
1074,8, T_Sinc, T_Sinc_DRLR,553.5, hit,1,0
1075,8, T_Sinc, T_Sinc_UGRG,564.9, hit,2,0
1076,8, T_Sinc, T_Sinc_UGRG,464.4, hit,2,0
1077,8, T_Sinc, T_Sinc_UGRG,363.8, hit,2,0
1078,8, T_Sinc, T_Sinc_UGRG,399.3, hit,2,0
1079,8, T_Scon, T_Scon_URLR,442.6, hit,1,0
1080,8, T_Sinc, T_Sinc_UGRG,405.8, hit,2,0
1081,8, T_Sinc, T_Sinc_DRLR,465.3, hit,1,0
1082,8, T_Sinc, T_Sinc_UGRG,312.7, incorrect,1,1
1083,8, T_Scon, T_Scon_URLR,524.1, hit,1,0
1084,8, T_Sinc, T_Sinc_UGRG,371.5, hit,2,0
1085,8, T_Sinc, T_Sinc_UGRG,259, hit,2,0
1086,8, T_Scon, T_Scon_DGRG,342.4, hit,2,0
1087,8, T_Sinc, T_Sinc_DRLR,209.9, incorrect,2,1
1088,8, T_Sinc, T_Sinc_UGRG,957.3, hit,2,2
1089,8, T_Sinc, T_Sinc_UGRG,352.8, hit,2,0
1090,8, T_Sinc, T_Sinc_DRLR,256.2, hit,1,0
1091,8, T_Scon, T_Scon_DGRG,355.6, hit,2,0
1092,8, T_Scon, T_Scon_URLR,375, hit,1,0
1093,8, T_Scon, T_Scon_URLR,546.5, hit,1,0
1094,8, T_Scon, T_Scon_DGRG,526, hit,2,0
1095,8, T_Sinc, T_Sinc_DRLR,561.4, hit,1,0
1096,8, T_Sinc, T_Sinc_DRLR,372.9, hit,1,0
1097,8, T_Sinc, T_Sinc_DRLR,324.3, hit,1,0
1098,8, T_Sinc, T_Sinc_UGRG,659.8, hit,2,0
1099,8, T_Sinc, T_Sinc_DRLR,1543.1, hit,1,2
1100,8, T_Sinc, T_Sinc_DRLR,482.7, hit,1,0
1101,8, T_Sinc, T_Sinc_DRLR,350, hit,1,0
1102,8, T_Sinc, T_Sinc_DRLR,293.5, hit,1,0
1103,8, T_Sinc, T_Sinc_DRLR,280.9, hit,1,0
1104,8, T_Sinc, T_Sinc_DRLR,260.4, hit,1,0
1105,8, T_Sinc, T_Sinc_UGRG,431.8, hit,2,0
1106,8, T_Sinc, T_Sinc_UGRG,307.2, hit,2,0
1107,8, T_Scon, T_Scon_URLR,438.6, hit,1,0
1108,8, T_Sinc, T_Sinc_UGRG,314.1, hit,2,0
1109,8, T_Scon, T_Scon_DGRG,293.5, hit,2,0
1110,8, T_Sinc, T_Sinc_UGRG,285, hit,2,0
1111,8, T_Sinc, T_Sinc_UGRG,296.4, hit,2,0
1112,8, T_Sinc, T_Sinc_UGRG,451.9, hit,2,0
1113,8, T_Sinc, T_Sinc_DRLR,1223.3, hit,1,2
1114,8, T_Scon, T_Scon_URLR,422.7, hit,1,0
1115,8, T_Sinc, T_Sinc_DRLR,330.1, hit,1,0
1116,8, T_Scon, T_Scon_URLR,409.3, hit,1,0
1117,8, T_Sinc, T_Sinc_DRLR,300.8, hit,1,0
1118,8, T_Sinc, T_Sinc_UGRG,416.2, hit,2,0
1119,8, T_Sinc, T_Sinc_UGRG,331.6, hit,2,0
1120,8, T_Sinc, T_Sinc_DRLR,399, hit,1,0
1121,8, T_Sinc, T_Sinc_DRLR,234.5, hit,1,0
1122,8, T_Sinc, T_Sinc_UGRG,365.9, hit,2,0
1123,8, T_Sinc, T_Sinc_DRLR,349.4, hit,1,0
1124,8, T_Sinc, T_Sinc_DRLR,388.8, hit,1,0
1125,8, T_Sinc, T_Sinc_DRLR,380.3, hit,1,0
1126,8, T_Sinc, T_Sinc_UGRG,383.7, incorrect,1,1
1127,8, T_Scon, T_Scon_DGRG,403.1, incorrect,1,1
1128,8, T_Sinc, T_Sinc_DRLR,374.5, hit,1,0
1129,8, T_Sinc, T_Sinc_UGRG,362, hit,2,0
1130,8, T_Scon, T_Scon_DGRG,601.4, hit,2,0
1131,8, T_Sinc, T_Sinc_UGRG,296.9, hit,2,0
1132,8, T_Sinc, T_Sinc_UGRG,296.3, hit,2,0
1133,8, T_Scon, T_Scon_URLR,375.7, hit,1,0
1134,8, T_Scon, T_Scon_DGRG,455.2, hit,2,0
1135,8, T_Sinc, T_Sinc_UGRG,486.7, hit,2,0
1136,8, T_Sinc, T_Sinc_UGRG,390, hit,2,0
1137,8, T_Sinc, T_Sinc_DRLR,385.5, hit,1,0
1138,8, T_Sinc, T_Sinc_UGRG,452.9, hit,2,0
1139,8, T_Sinc, T_Sinc_DRLR,440.4, hit,1,0
1140,8, T_Scon, T_Scon_URLR,395.8, hit,1,0
1141,8, T_Sinc, T_Sinc_UGRG,371.3, hit,2,0
1142,8, T_Scon, T_Scon_DGRG,670.6, hit,2,0
1143,8, T_Sinc, T_Sinc_DRLR,342.1, hit,1,0
1144,8, T_Sinc, T_Sinc_UGRG,377.5, hit,2,0
1145,8, T_Scon, T_Scon_URLR,461, hit,1,0
1146,8, T_Sinc, T_Sinc_DRLR,428.4, hit,1,0
1147,8, T_Scon, T_Scon_DGRG,323.9, hit,2,0
1148,8, T_Sinc, T_Sinc_DRLR,503.3, hit,1,0
1149,8, T_Sinc, T_Sinc_UGRG,706.6, hit,2,0
1150,8, T_Scon, T_Scon_URLR,550.1, hit,1,0
1151,8, T_Sinc, T_Sinc_DRLR,1041.5, hit,1,2
1152,9, T_Sinc, T_Sinc_UGRG,428.9, hit,2,0
1153,9, T_Sinc, T_Sinc_UGRG,320.3, hit,2,0
1154,9, T_Sinc, T_Sinc_DRLR,363.7, hit,1,0
1155,9, T_Sinc, T_Sinc_DRLR,239.2, hit,1,0
1156,9, T_Sinc, T_Sinc_DRLR,354.6, hit,1,0
1157,9, T_Scon, T_Scon_URLR,310.1, hit,1,0
1158,9, T_Sinc, T_Sinc_DRLR,233.4, hit,1,0
1159,9, T_Scon, T_Scon_URLR,404.9, hit,1,0
1160,9, T_Sinc, T_Sinc_UGRG,312.3, incorrect,1,1
1161,9, T_Sinc, T_Sinc_UGRG,387.8, incorrect,1,1
1162,9, T_Scon, T_Scon_DGRG,375.2, hit,2,0
1163,9, T_Scon, T_Scon_DGRG,338.7, hit,2,0
1164,9, T_Sinc, T_Sinc_UGRG,422, hit,2,0
1165,9, T_Scon, T_Scon_URLR,425.5, hit,1,0
1166,9, T_Sinc, T_Sinc_DRLR,472.9, hit,1,0
1167,9, T_Sinc, T_Sinc_UGRG,348.4, hit,2,0
1168,9, T_Sinc, T_Sinc_UGRG,399.8, hit,2,0
1169,9, T_Scon, T_Scon_DGRG,451.3, hit,2,0
1170,9, T_Sinc, T_Sinc_UGRG,390.7, hit,2,0
1171,9, T_Sinc, T_Sinc_UGRG,306.2, hit,2,0
1172,9, T_Sinc, T_Sinc_DRLR,605.5, hit,1,0
1173,9, T_Sinc, T_Sinc_DRLR,297, hit,1,0
1174,9, T_Sinc, T_Sinc_UGRG,1048.4, hit,2,2
1175,9, T_Sinc, T_Sinc_DRLR,647.9, hit,1,0
1176,9, T_Sinc, T_Sinc_DRLR,387.3, hit,1,0
1177,9, T_Sinc, T_Sinc_DRLR,334.8, hit,1,0
1178,9, T_Sinc, T_Sinc_DRLR,390.2, hit,1,0
1179,9, T_Sinc, T_Sinc_DRLR,389.6, hit,1,0
1180,9, T_Sinc, T_Sinc_UGRG,485, hit,2,0
1181,9, T_Sinc, T_Sinc_DRLR,412.5, hit,1,0
1182,9, T_Sinc, T_Sinc_UGRG,535.9, incorrect,1,1
1183,9, T_Sinc, T_Sinc_UGRG,379.4, incorrect,1,1
1184,9, T_Sinc, T_Sinc_DRLR,478.8, hit,1,0
1185,9, T_Sinc, T_Sinc_UGRG,322.3, hit,2,0
1186,9, T_Sinc, T_Sinc_UGRG,345.7, hit,2,0
1187,9, T_Sinc, T_Sinc_UGRG,449.1, hit,2,0
1188,9, T_Scon, T_Scon_URLR,0.1, miss,1002275,1
1189,9, T_Scon, T_Scon_DGRG,451.7, hit,2,0
1190,9, T_Sinc, T_Sinc_UGRG,343.2, hit,2,0
1191,9, T_Scon, T_Scon_DGRG,338.7, hit,2,0
1192,9, T_Sinc, T_Sinc_UGRG,318, hit,2,0
1193,9, T_Sinc, T_Sinc_UGRG,249.5, hit,2,0
1194,9, T_Sinc, T_Sinc_UGRG,272.9, hit,2,0
1195,9, T_Sinc, T_Sinc_DRLR,372.4, hit,1,0
1196,9, T_Sinc, T_Sinc_UGRG,375.8, hit,2,0
1197,9, T_Sinc, T_Sinc_DRLR,363.3, hit,1,0
1198,9, T_Sinc, T_Sinc_UGRG,506.7, hit,2,0
1199,9, T_Scon, T_Scon_URLR,862.1, hit,1,0
1200,9, T_Sinc, T_Sinc_UGRG,385.5, hit,2,0
1201,9, T_Sinc, T_Sinc_UGRG,305, hit,2,0
1202,9, T_Scon, T_Scon_URLR,436.4, hit,1,0
1203,9, T_Scon, T_Scon_URLR,383.9, hit,1,0
1204,9, T_Sinc, T_Sinc_DRLR,299.3, hit,1,0
1205,9, T_Sinc, T_Sinc_DRLR,302.8, hit,1,0
1206,9, T_Sinc, T_Sinc_UGRG,402.1, hit,2,0
1207,9, T_Sinc, T_Sinc_DRLR,433.6, hit,1,0
1208,9, T_Sinc, T_Sinc_DRLR,373, hit,1,0
1209,9, T_Scon, T_Scon_URLR,348.5, hit,1,0
1210,9, T_Sinc, T_Sinc_DRLR,359.9, hit,1,0
1211,9, T_Sinc, T_Sinc_DRLR,263.4, hit,1,0
1212,9, T_Scon, T_Scon_DGRG,430.8, hit,2,0
1213,9, T_Scon, T_Scon_URLR,626.3, hit,1,0
1214,9, T_Sinc, T_Sinc_UGRG,385.6, hit,2,0
1215,9, T_Sinc, T_Sinc_DRLR,417.1, hit,1,0
1216,9, T_Sinc, T_Sinc_DRLR,312.5, hit,1,0
1217,9, T_Sinc, T_Sinc_DRLR,412, hit,1,0
1218,9, T_Scon, T_Scon_DGRG,287.4, incorrect,1,1
1219,9, T_Scon, T_Scon_URLR,410.9, hit,1,0
1220,9, T_Sinc, T_Sinc_UGRG,426.3, hit,2,0
1221,9, T_Scon, T_Scon_DGRG,329.8, hit,2,0
1222,9, T_Sinc, T_Sinc_UGRG,513.1, hit,2,0
1223,9, T_Sinc, T_Sinc_UGRG,368.6, hit,2,0
1224,9, T_Scon, T_Scon_DGRG,319.8, incorrect,1,1
1225,9, T_Scon, T_Scon_DGRG,419.2, hit,2,0
1226,9, T_Sinc, T_Sinc_DRLR,422.6, hit,1,0
1227,9, T_Scon, T_Scon_DGRG,438, hit,2,0
1228,9, T_Sinc, T_Sinc_UGRG,417.5, hit,2,0
1229,9, T_Sinc, T_Sinc_UGRG,348.9, hit,2,0
1230,9, T_Scon, T_Scon_URLR,352.4, hit,1,0
1231,9, T_Sinc, T_Sinc_UGRG,555.8, hit,2,0
1232,9, T_Sinc, T_Sinc_DRLR,435.3, hit,1,0
1233,9, T_Sinc, T_Sinc_DRLR,546.7, hit,1,0
1234,9, T_Sinc, T_Sinc_DRLR,766.1, hit,1,0
1235,9, T_Scon, T_Scon_URLR,377.5, hit,1,0
1236,9, T_Scon, T_Scon_URLR,337, hit,1,0
1237,9, T_Scon, T_Scon_URLR,564.4, hit,1,0
1238,9, T_Scon, T_Scon_DGRG,291.9, incorrect,1,1
1239,9, T_Sinc, T_Sinc_DRLR,263.3, incorrect,2,1
1240,9, T_Sinc, T_Sinc_UGRG,418.8, incorrect,1,1
1241,9, T_Sinc, T_Sinc_DRLR,478.1, hit,1,0
1242,9, T_Sinc, T_Sinc_DRLR,413.6, hit,1,0
1243,9, T_Scon, T_Scon_DGRG,421, hit,2,0
1244,9, T_Sinc, T_Sinc_UGRG,424.5, hit,2,0
1245,9, T_Sinc, T_Sinc_UGRG,419.9, hit,2,0
1246,9, T_Scon, T_Scon_DGRG,335.4, hit,2,0
1247,9, T_Scon, T_Scon_DGRG,342.8, hit,2,0
1248,9, T_Sinc, T_Sinc_DRLR,382.3, hit,1,0
1249,9, T_Sinc, T_Sinc_UGRG,385.6, hit,2,0
1250,9, T_Sinc, T_Sinc_UGRG,481.1, hit,2,0
1251,9, T_Sinc, T_Sinc_DRLR,404.5, hit,1,0
1252,9, T_Sinc, T_Sinc_UGRG,608, hit,2,0
1253,9, T_Sinc, T_Sinc_DRLR,427.4, hit,1,0
1254,9, T_Sinc, T_Sinc_DRLR,558.9, hit,1,0
1255,9, T_Sinc, T_Sinc_UGRG,606.3, hit,2,0
1256,9, T_Sinc, T_Sinc_DRLR,609.7, hit,1,0
1257,9, T_Sinc, T_Sinc_DRLR,469.1, hit,1,0
1258,9, T_Sinc, T_Sinc_DRLR,408.6, hit,1,0
1259,9, T_Sinc, T_Sinc_UGRG,460, hit,2,0
1260,9, T_Sinc, T_Sinc_DRLR,383.2, hit,1,0
1261,9, T_Sinc, T_Sinc_UGRG,378.6, hit,2,0
1262,9, T_Sinc, T_Sinc_UGRG,322, hit,2,0
1263,9, T_Sinc, T_Sinc_UGRG,341.5, hit,2,0
1264,9, T_Sinc, T_Sinc_DRLR,404.9, hit,1,0
1265,9, T_Sinc, T_Sinc_UGRG,360.4, incorrect,1,1
1266,9, T_Sinc, T_Sinc_DRLR,275.8, hit,1,0
1267,9, T_Scon, T_Scon_DGRG,359.3, hit,2,0
1268,9, T_Sinc, T_Sinc_UGRG,546.7, hit,2,0
1269,9, T_Sinc, T_Sinc_DRLR,526.1, hit,1,0
1270,9, T_Sinc, T_Sinc_DRLR,337.5, hit,1,0
1271,9, T_Sinc, T_Sinc_DRLR,301, hit,1,0
1272,9, T_Sinc, T_Sinc_DRLR,380.4, hit,1,0
1273,9, T_Scon, T_Scon_URLR,575.9, hit,1,0
1274,9, T_Scon, T_Scon_URLR,711.3, hit,1,0
1275,9, T_Sinc, T_Sinc_UGRG,474.8, hit,2,0
1276,9, T_Sinc, T_Sinc_UGRG,350.1, hit,2,0
1277,9, T_Sinc, T_Sinc_UGRG,365.6, hit,2,0
1278,9, T_Scon, T_Scon_URLR,421.1, hit,1,0
1279,9, T_Sinc, T_Sinc_DRLR,436.5, hit,1,0
1280,9, T_Sinc, T_Sinc_DRLR,407.9, hit,1,0
1281,9, T_Sinc, T_Sinc_DRLR,391.4, hit,1,0
1282,9, T_Sinc, T_Sinc_UGRG,466.8, hit,2,0
1283,9, T_Sinc, T_Sinc_UGRG,398.3, hit,2,0
1284,9, T_Sinc, T_Sinc_UGRG,297.6, hit,2,0
1285,9, T_Sinc, T_Sinc_UGRG,253.1, hit,2,0
1286,9, T_Sinc, T_Sinc_UGRG,252.5, hit,2,0
1287,9, T_Scon, T_Scon_DGRG,268, hit,2,0
1288,9, T_Sinc, T_Sinc_DRLR,423.4, hit,1,0
1289,9, T_Sinc, T_Sinc_UGRG,610.9, hit,2,0
1290,9, T_Scon, T_Scon_URLR,614.4, hit,1,0
1291,9, T_Sinc, T_Sinc_DRLR,313.7, hit,1,0
1292,9, T_Sinc, T_Sinc_DRLR,361.2, hit,1,0
1293,9, T_Sinc, T_Sinc_DRLR,280.6, hit,1,0
1294,9, T_Sinc, T_Sinc_DRLR,292.1, hit,1,0
1295,9, T_Scon, T_Scon_DGRG,435.5, hit,2,0
