trial_index, block, condition, full_condition_code, RT, response_type, response_key, error_outlier
1,1, T_Sinc, T_Sinc_URRR,431.6, hit,2,0
2,1, T_Scon, T_Scon_DRRR,507, hit,2,0
3,1, T_Scon, T_Scon_DRRR,442.4, hit,2,0
4,1, T_Scon, T_Scon_DRRR,405.9, hit,2,0
5,1, T_Scon, T_Scon_DRRR,369.3, hit,2,0
6,1, T_Sinc, T_Sinc_DGLG,440.8, hit,1,0
7,1, T_Sinc, T_Sinc_URRR,376.2, hit,2,0
8,1, T_Scon, T_Scon_DRRR,363.5, hit,2,0
9,1, T_Sinc, T_Sinc_URRR,455, hit,2,0
10,1, T_Sinc, T_Sinc_URRR,558.5, hit,2,0
11,1, T_Scon, T_Scon_DRRR,441.9, hit,2,0
12,1, T_Scon, T_Scon_DRRR,277.3, hit,2,0
13,1, T_Scon, T_Scon_UGLG,352.8, hit,1,0
14,1, T_Scon, T_Scon_UGLG,384.3, hit,1,0
15,1, T_Scon, T_Scon_DRRR,355.6, hit,2,0
16,1, T_Scon, T_Scon_DRRR,319.1, hit,2,0
17,1, T_Sinc, T_Sinc_URRR,842.5, hit,2,2
18,1, T_Scon, T_Scon_DRRR,350, hit,2,0
19,1, T_Scon, T_Scon_DRRR,345.4, hit,2,0
20,1, T_Sinc, T_Sinc_DGLG,324.8, hit,1,0
21,1, T_Scon, T_Scon_DRRR,368.3, hit,2,0
22,1, T_Sinc, T_Sinc_DGLG,603.7, hit,1,0
23,1, T_Scon, T_Scon_UGLG,503.1, hit,1,0
24,1, T_Scon, T_Scon_UGLG,402.6, hit,1,0
25,1, T_Scon, T_Scon_DRRR,330.1, hit,2,0
26,1, T_Scon, T_Scon_UGLG,501.4, hit,1,0
27,1, T_Scon, T_Scon_DRRR,272.9, hit,2,0
28,1, T_Scon, T_Scon_UGLG,456.4, hit,1,0
29,1, T_Scon, T_Scon_DRRR,219.7, hit,2,0
30,1, T_Scon, T_Scon_DRRR,375.2, hit,2,0
31,1, T_Scon, T_Scon_DRRR,382.7, hit,2,0
32,1, T_Sinc, T_Sinc_DGLG,318.1, hit,1,0
33,1, T_Scon, T_Scon_UGLG,397.6, hit,1,0
34,1, T_Scon, T_Scon_UGLG,337, hit,1,0
35,1, T_Scon, T_Scon_UGLG,304.4, hit,1,0
36,1, T_Sinc, T_Sinc_URRR,359.8, hit,2,0
37,1, T_Scon, T_Scon_DRRR,431, hit,2,0
38,1, T_Scon, T_Scon_DRRR,310.5, hit,2,0
39,1, T_Scon, T_Scon_UGLG,357.8, hit,1,0
40,1, T_Scon, T_Scon_UGLG,377.3, hit,1,0
41,1, T_Scon, T_Scon_UGLG,324.8, hit,1,0
42,1, T_Scon, T_Scon_UGLG,388.1, hit,1,0
43,1, T_Scon, T_Scon_DRRR,367.6, hit,2,0
44,1, T_Scon, T_Scon_DRRR,507.1, hit,2,0
45,1, T_Scon, T_Scon_UGLG,358.6, hit,1,0
46,1, T_Scon, T_Scon_UGLG,314, hit,1,0
47,1, T_Scon, T_Scon_DRRR,373.4, hit,2,0
48,1, T_Scon, T_Scon_DRRR,276.9, hit,2,0
49,1, T_Scon, T_Scon_DRRR,384.2, hit,2,0
50,1, T_Scon, T_Scon_UGLG,287.7, hit,1,0
51,1, T_Scon, T_Scon_UGLG,331.1, hit,1,0
52,1, T_Scon, T_Scon_UGLG,334.5, hit,1,0
53,1, T_Scon, T_Scon_UGLG,338, hit,1,0
54,1, T_Scon, T_Scon_DRRR,333.5, hit,2,0
55,1, T_Scon, T_Scon_DRRR,344.9, incorrect,1,1
56,1, T_Scon, T_Scon_UGLG,260.3, hit,1,0
57,1, T_Sinc, T_Sinc_DGLG,423.8, hit,1,0
58,1, T_Sinc, T_Sinc_DGLG,379.2, hit,1,0
59,1, T_Sinc, T_Sinc_URRR,478.6, hit,2,0
60,1, T_Sinc, T_Sinc_DGLG,546.1, hit,1,0
61,1, T_Sinc, T_Sinc_DGLG,437.6, hit,1,0
62,1, T_Scon, T_Scon_DRRR,496.9, hit,2,0
63,1, T_Scon, T_Scon_DRRR,388.4, hit,2,0
64,1, T_Scon, T_Scon_UGLG,535.9, hit,1,0
65,1, T_Scon, T_Scon_UGLG,499.2, hit,1,0
66,1, T_Scon, T_Scon_UGLG,414.7, hit,1,0
67,1, T_Scon, T_Scon_DRRR,406.2, hit,2,0
68,1, T_Sinc, T_Sinc_DGLG,429.6, hit,1,0
69,1, T_Scon, T_Scon_UGLG,441, hit,1,0
70,1, T_Scon, T_Scon_UGLG,352.5, hit,1,0
71,1, T_Scon, T_Scon_DRRR,431.9, hit,2,0
72,1, T_Sinc, T_Sinc_DGLG,347.3, incorrect,2,1
73,1, T_Sinc, T_Sinc_DGLG,586.5, hit,1,0
74,1, T_Scon, T_Scon_UGLG,714, hit,1,2
75,1, T_Scon, T_Scon_UGLG,425.4, hit,1,0
76,1, T_Scon, T_Scon_DRRR,548.8, hit,2,0
77,1, T_Scon, T_Scon_DRRR,680.3, hit,2,2
78,1, T_Sinc, T_Sinc_DGLG,387.7, hit,1,0
79,1, T_Sinc, T_Sinc_URRR,687.1, hit,2,0
80,1, T_Sinc, T_Sinc_URRR,366.6, hit,2,0
81,1, T_Scon, T_Scon_DRRR,434, hit,2,0
82,1, T_Scon, T_Scon_UGLG,317.4, hit,1,0
83,1, T_Scon, T_Scon_UGLG,272.9, hit,1,0
84,1, T_Sinc, T_Sinc_URRR,308.4, hit,2,0
85,1, T_Sinc, T_Sinc_URRR,551.7, hit,2,0
86,1, T_Scon, T_Scon_UGLG,339.2, hit,1,0
87,1, T_Scon, T_Scon_DRRR,378.7, hit,2,0
88,1, T_Scon, T_Scon_UGLG,290.1, hit,1,0
89,1, T_Scon, T_Scon_UGLG,325.5, hit,1,0
90,1, T_Scon, T_Scon_DRRR,385, hit,2,0
91,1, T_Scon, T_Scon_DRRR,332.4, hit,2,0
92,1, T_Scon, T_Scon_DRRR,531.8, hit,2,0
93,1, T_Scon, T_Scon_UGLG,291.3, hit,1,0
94,1, T_Scon, T_Scon_DRRR,370.7, hit,2,0
95,1, T_Scon, T_Scon_UGLG,354.1, hit,1,0
96,1, T_Scon, T_Scon_DRRR,329.6, hit,2,0
97,1, T_Scon, T_Scon_UGLG,453, hit,1,0
98,1, T_Scon, T_Scon_UGLG,480.5, incorrect,2,1
99,1, T_Scon, T_Scon_UGLG,343.9, hit,1,0
100,1, T_Sinc, T_Sinc_DGLG,403.3, hit,1,0
101,1, T_Scon, T_Scon_DRRR,414.8, hit,2,0
102,1, T_Scon, T_Scon_DRRR,394.2, hit,2,0
103,1, T_Scon, T_Scon_DRRR,533.6, hit,2,0
104,1, T_Scon, T_Scon_UGLG,357.1, hit,1,0
105,1, T_Sinc, T_Sinc_DGLG,304.5, incorrect,2,1
106,1, T_Scon, T_Scon_UGLG,347.9, hit,1,0
107,1, T_Scon, T_Scon_DRRR,399.4, hit,2,0
108,1, T_Scon, T_Scon_DRRR,426.9, hit,2,0
109,1, T_Scon, T_Scon_UGLG,438.1, hit,1,0
110,1, T_Scon, T_Scon_UGLG,321.4, hit,1,0
111,1, T_Scon, T_Scon_UGLG,304.9, hit,1,0
112,1, T_Scon, T_Scon_UGLG,316.3, hit,1,0
113,1, T_Sinc, T_Sinc_URRR,487.7, hit,2,0
114,1, T_Scon, T_Scon_UGLG,411.2, hit,1,0
115,1, T_Sinc, T_Sinc_URRR,606.6, hit,2,0
116,1, T_Scon, T_Scon_DRRR,322, hit,2,0
117,1, T_Sinc, T_Sinc_URRR,529.5, hit,2,0
118,1, T_Scon, T_Scon_UGLG,468.9, hit,1,0
119,1, T_Scon, T_Scon_DRRR,424.3, hit,2,0
120,1, T_Scon, T_Scon_DRRR,335.8, hit,2,0
121,1, T_Scon, T_Scon_DRRR,399.3, hit,2,0
122,1, T_Scon, T_Scon_DRRR,358.6, hit,2,0
123,1, T_Scon, T_Scon_UGLG,466.1, hit,1,0
124,1, T_Scon, T_Scon_UGLG,477.6, hit,1,0
125,1, T_Scon, T_Scon_UGLG,472.9, hit,1,0
126,1, T_Scon, T_Scon_DRRR,388.4, hit,2,0
127,1, T_Sinc, T_Sinc_DGLG,711.9, hit,1,0
128,1, T_Sinc, T_Sinc_URRR,731.3, hit,2,2
129,1, T_Scon, T_Scon_UGLG,314.7, hit,1,0
130,1, T_Sinc, T_Sinc_URRR,318.2, hit,2,0
131,1, T_Sinc, T_Sinc_DGLG,497.7, hit,1,0
132,1, T_Sinc, T_Sinc_DGLG,701.1, hit,1,0
133,1, T_Scon, T_Scon_UGLG,436.5, hit,1,0
134,1, T_Sinc, T_Sinc_URRR,456, hit,2,0
135,1, T_Scon, T_Scon_UGLG,431.4, hit,1,0
136,1, T_Sinc, T_Sinc_DGLG,486.8, hit,1,0
137,1, T_Scon, T_Scon_DRRR,394.3, hit,2,0
138,1, T_Scon, T_Scon_DRRR,317.8, hit,2,0
139,1, T_Scon, T_Scon_DRRR,329.1, hit,2,0
140,1, T_Scon, T_Scon_UGLG,512.6, hit,1,0
141,1, T_Sinc, T_Sinc_URRR,532, hit,2,0
142,1, T_Scon, T_Scon_UGLG,451.4, hit,1,0
143,1, T_Scon, T_Scon_DRRR,450.9, hit,2,0
144,1, T_Scon, T_Scon_UGLG,290.4, hit,1,0
145,2, T_Scon, T_Scon_DRRR,499, hit,2,0
146,2, T_Sinc, T_Sinc_URRR,466.5, hit,2,0
147,2, T_Scon, T_Scon_DRRR,317.9, hit,2,0
148,2, T_Scon, T_Scon_DRRR,289.3, hit,2,0
149,2, T_Sinc, T_Sinc_URRR,292.8, hit,2,0
150,2, T_Scon, T_Scon_DRRR,320.2, hit,2,0
151,2, T_Scon, T_Scon_DRRR,387.6, hit,2,0
152,2, T_Scon, T_Scon_DRRR,283.1, hit,2,0
153,2, T_Scon, T_Scon_DRRR,270.6, hit,2,0
154,2, T_Scon, T_Scon_DRRR,321.9, hit,2,0
155,2, T_Sinc, T_Sinc_DGLG,465.4, hit,1,0
156,2, T_Scon, T_Scon_DRRR,400.9, hit,2,0
157,2, T_Scon, T_Scon_UGLG,448.3, hit,1,0
158,2, T_Scon, T_Scon_UGLG,323.7, hit,1,0
159,2, T_Scon, T_Scon_DRRR,367.2, hit,2,0
160,2, T_Scon, T_Scon_DRRR,366.6, hit,2,0
161,2, T_Scon, T_Scon_DRRR,362, hit,2,0
162,2, T_Scon, T_Scon_UGLG,373.5, hit,1,0
163,2, T_Scon, T_Scon_UGLG,320.9, hit,1,0
164,2, T_Sinc, T_Sinc_URRR,376.3, hit,2,0
165,2, T_Scon, T_Scon_DRRR,387.8, hit,2,0
166,2, T_Scon, T_Scon_UGLG,635.2, hit,1,0
167,2, T_Sinc, T_Sinc_DGLG,490.6, hit,1,0
168,2, T_Sinc, T_Sinc_URRR,382.1, hit,2,0
169,2, T_Sinc, T_Sinc_URRR,321.5, hit,2,0
170,2, T_Scon, T_Scon_DRRR,424.9, hit,2,0
171,2, T_Scon, T_Scon_UGLG,464.4, hit,1,0
172,2, T_Sinc, T_Sinc_DGLG,367.8, hit,1,0
173,2, T_Sinc, T_Sinc_URRR,527.3, hit,2,0
174,2, T_Scon, T_Scon_DRRR,346.7, hit,2,0
175,2, T_Scon, T_Scon_UGLG,322.1, hit,1,0
176,2, T_Scon, T_Scon_UGLG,305.6, hit,1,0
177,2, T_Scon, T_Scon_DRRR,365, hit,2,0
178,2, T_Sinc, T_Sinc_DGLG,560.4, hit,1,0
179,2, T_Scon, T_Scon_UGLG,307.9, hit,1,0
180,2, T_Scon, T_Scon_DRRR,387.3, hit,2,0
181,2, T_Scon, T_Scon_UGLG,662.6, hit,1,2
182,2, T_Scon, T_Scon_UGLG,321.9, hit,1,0
183,2, T_Sinc, T_Sinc_URRR,393.4, hit,2,0
184,2, T_Scon, T_Scon_DRRR,596.8, hit,2,0
185,2, T_Scon, T_Scon_DRRR,276.2, hit,2,0
186,2, T_Sinc, T_Sinc_DGLG,419.7, hit,1,0
187,2, T_Sinc, T_Sinc_URRR,511.1, hit,2,0
188,2, T_Scon, T_Scon_UGLG,482.5, hit,1,0
189,2, T_Scon, T_Scon_UGLG,402, hit,1,0
190,2, T_Scon, T_Scon_UGLG,317.4, hit,1,0
191,2, T_Scon, T_Scon_DRRR,480.8, hit,2,0
192,2, T_Sinc, T_Sinc_URRR,444.3, hit,2,0
193,2, T_Scon, T_Scon_UGLG,303.8, hit,1,0
194,2, T_Sinc, T_Sinc_URRR,531.1, hit,2,0
195,2, T_Sinc, T_Sinc_URRR,430.6, hit,2,0
196,2, T_Scon, T_Scon_UGLG,434.1, hit,1,0
197,2, T_Sinc, T_Sinc_DGLG,413.5, hit,1,0
198,2, T_Scon, T_Scon_DRRR,384.9, hit,2,0
199,2, T_Scon, T_Scon_UGLG,600.4, hit,1,0
200,2, T_Scon, T_Scon_UGLG,475.8, hit,1,0
201,2, T_Scon, T_Scon_UGLG,355.3, hit,1,0
202,2, T_Scon, T_Scon_DRRR,366.7, hit,2,0
203,2, T_Scon, T_Scon_UGLG,578.1, hit,1,0
204,2, T_Scon, T_Scon_UGLG,529.6, hit,1,0
205,2, T_Scon, T_Scon_DRRR,469, hit,2,0
206,2, T_Scon, T_Scon_UGLG,440.5, hit,1,0
207,2, T_Scon, T_Scon_UGLG,343.9, hit,1,0
208,2, T_Scon, T_Scon_DRRR,383.3, hit,2,0
209,2, T_Scon, T_Scon_DRRR,330.8, hit,2,0
210,2, T_Sinc, T_Sinc_URRR,466.2, incorrect,1,1
211,2, T_Sinc, T_Sinc_URRR,429.6, hit,2,0
212,2, T_Scon, T_Scon_DRRR,437.1, hit,2,0
213,2, T_Scon, T_Scon_UGLG,304.5, hit,1,0
214,2, T_Sinc, T_Sinc_DGLG,459.9, hit,1,0
215,2, T_Scon, T_Scon_DRRR,383.4, hit,2,0
216,2, T_Sinc, T_Sinc_DGLG,466.9, hit,1,0
217,2, T_Scon, T_Scon_UGLG,502, hit,1,0
218,2, T_Scon, T_Scon_UGLG,265.4, hit,1,0
219,2, T_Scon, T_Scon_UGLG,284.9, hit,1,0
220,2, T_Scon, T_Scon_DRRR,352.3, hit,2,0
221,2, T_Scon, T_Scon_UGLG,359.7, hit,1,0
222,2, T_Scon, T_Scon_DRRR,363.2, hit,2,0
223,2, T_Scon, T_Scon_UGLG,334.6, hit,1,0
224,2, T_Sinc, T_Sinc_URRR,450, hit,2,0
225,2, T_Scon, T_Scon_DRRR,385.5, hit,2,0
226,2, T_Scon, T_Scon_DRRR,397, hit,2,0
227,2, T_Scon, T_Scon_UGLG,300.3, hit,1,0
228,2, T_Scon, T_Scon_DRRR,303.8, hit,2,0
229,2, T_Sinc, T_Sinc_DGLG,531.3, hit,1,0
230,2, T_Sinc, T_Sinc_DGLG,358.6, hit,1,0
231,2, T_Scon, T_Scon_DRRR,410.1, hit,2,0
232,2, T_Scon, T_Scon_DRRR,345.6, hit,2,0
233,2, T_Sinc, T_Sinc_DGLG,360.9, hit,1,0
234,2, T_Scon, T_Scon_UGLG,452.4, hit,1,0
235,2, T_Scon, T_Scon_DRRR,335.9, hit,2,0
236,2, T_Scon, T_Scon_DRRR,299.4, hit,2,0
237,2, T_Scon, T_Scon_DRRR,302.7, hit,2,0
238,2, T_Scon, T_Scon_UGLG,386.2, hit,1,0
239,2, T_Scon, T_Scon_DRRR,365.7, hit,2,0
240,2, T_Scon, T_Scon_UGLG,505, hit,1,0
241,2, T_Sinc, T_Sinc_URRR,564.5, hit,2,0
242,2, T_Scon, T_Scon_DRRR,388, hit,2,0
243,2, T_Scon, T_Scon_UGLG,391.4, hit,1,0
244,2, T_Scon, T_Scon_UGLG,354.8, hit,1,0
245,2, T_Scon, T_Scon_UGLG,334.3, hit,1,0
246,2, T_Sinc, T_Sinc_DGLG,373.7, hit,1,0
247,2, T_Scon, T_Scon_UGLG,325.2, hit,1,0
248,2, T_Scon, T_Scon_UGLG,304.6, hit,1,0
249,2, T_Scon, T_Scon_DRRR,372.1, hit,2,0
250,2, T_Scon, T_Scon_DRRR,299.4, hit,2,0
251,2, T_Scon, T_Scon_UGLG,398.9, hit,1,0
252,2, T_Sinc, T_Sinc_URRR,426.3, hit,2,0
253,2, T_Scon, T_Scon_DRRR,469.5, hit,2,0
254,2, T_Scon, T_Scon_DRRR,344.9, hit,2,0
255,2, T_Sinc, T_Sinc_DGLG,420.4, hit,1,0
256,2, T_Scon, T_Scon_DRRR,471.7, hit,2,0
257,2, T_Sinc, T_Sinc_URRR,335.2, incorrect,1,1
258,2, T_Scon, T_Scon_DRRR,426.7, hit,2,0
259,2, T_Scon, T_Scon_UGLG,318.1, hit,1,0
260,2, T_Scon, T_Scon_DRRR,409.5, hit,2,0
261,2, T_Scon, T_Scon_UGLG,537, hit,1,0
262,2, T_Scon, T_Scon_DRRR,376.4, hit,2,0
263,2, T_Scon, T_Scon_UGLG,347.8, hit,1,0
264,2, T_Scon, T_Scon_DRRR,375.3, hit,2,0
265,2, T_Scon, T_Scon_DRRR,282.7, hit,2,0
266,2, T_Scon, T_Scon_UGLG,342.1, hit,1,0
267,2, T_Scon, T_Scon_UGLG,385.6, hit,1,0
268,2, T_Sinc, T_Sinc_DGLG,437.1, hit,1,0
269,2, T_Scon, T_Scon_DRRR,424.5, hit,2,0
270,2, T_Scon, T_Scon_UGLG,395.9, hit,1,0
271,2, T_Scon, T_Scon_UGLG,383.4, hit,1,0
272,2, T_Sinc, T_Sinc_DGLG,486.8, hit,1,0
273,2, T_Scon, T_Scon_UGLG,266.2, hit,1,0
274,2, T_Scon, T_Scon_UGLG,313.7, hit,1,0
275,2, T_Sinc, T_Sinc_DGLG,373.1, hit,1,0
276,2, T_Scon, T_Scon_DRRR,544.5, hit,2,0
277,2, T_Scon, T_Scon_DRRR,364, hit,2,0
278,2, T_Sinc, T_Sinc_DGLG,455.5, hit,1,0
279,2, T_Scon, T_Scon_DRRR,466.9, hit,2,0
280,2, T_Scon, T_Scon_UGLG,346.3, hit,1,0
281,2, T_Scon, T_Scon_UGLG,397.8, hit,1,0
282,2, T_Sinc, T_Sinc_DGLG,401.2, hit,1,0
283,2, T_Sinc, T_Sinc_URRR,504.6, hit,2,0
284,2, T_Scon, T_Scon_UGLG,484.1, hit,1,0
285,2, T_Scon, T_Scon_UGLG,399.5, hit,1,0
286,2, T_Scon, T_Scon_DRRR,478.9, hit,2,0
287,2, T_Scon, T_Scon_UGLG,358.4, hit,1,0
288,2, T_Scon, T_Scon_UGLG,305.8, hit,1,0
289,3, T_Sinc, T_Sinc_DGLG,537.6, hit,1,0
290,3, T_Scon, T_Scon_DRRR,393, hit,2,0
291,3, T_Scon, T_Scon_UGLG,420.4, hit,1,0
292,3, T_Scon, T_Scon_UGLG,367.8, hit,1,0
293,3, T_Sinc, T_Sinc_URRR,359.3, incorrect,1,1
294,3, T_Scon, T_Scon_UGLG,322.7, hit,1,0
295,3, T_Scon, T_Scon_UGLG,322.1, hit,1,0
296,3, T_Scon, T_Scon_DRRR,373.6, hit,2,0
297,3, T_Scon, T_Scon_UGLG,425, hit,1,0
298,3, T_Scon, T_Scon_UGLG,320.4, hit,1,0
299,3, T_Sinc, T_Sinc_DGLG,475.9, hit,1,0
300,3, T_Scon, T_Scon_DRRR,407.3, hit,2,0
301,3, T_Scon, T_Scon_DRRR,442.8, hit,2,0
302,3, T_Sinc, T_Sinc_URRR,666.2, hit,2,0
303,3, T_Scon, T_Scon_UGLG,493.7, hit,1,0
304,3, T_Scon, T_Scon_UGLG,377.1, hit,1,0
305,3, T_Scon, T_Scon_UGLG,332.5, hit,1,0
306,3, T_Scon, T_Scon_UGLG,264, hit,1,0
307,3, T_Sinc, T_Sinc_URRR,359.4, hit,2,0
308,3, T_Scon, T_Scon_DRRR,450.8, hit,2,0
309,3, T_Scon, T_Scon_UGLG,442.3, hit,1,0
310,3, T_Scon, T_Scon_DRRR,497.7, hit,2,0
311,3, T_Scon, T_Scon_UGLG,469.2, hit,1,0
312,3, T_Scon, T_Scon_UGLG,384.6, hit,1,0
313,3, T_Scon, T_Scon_UGLG,388, hit,1,0
314,3, T_Sinc, T_Sinc_URRR,463.5, hit,2,0
315,3, T_Scon, T_Scon_UGLG,418.9, hit,1,0
316,3, T_Scon, T_Scon_DRRR,526.4, hit,2,0
317,3, T_Sinc, T_Sinc_DGLG,801.8, hit,1,2
318,3, T_Scon, T_Scon_UGLG,337.2, hit,1,0
319,3, T_Scon, T_Scon_UGLG,280.7, hit,1,0
320,3, T_Scon, T_Scon_UGLG,304.1, hit,1,0
321,3, T_Scon, T_Scon_DRRR,443.5, hit,2,0
322,3, T_Scon, T_Scon_DRRR,415, hit,2,0
323,3, T_Scon, T_Scon_DRRR,422.4, hit,2,0
324,3, T_Scon, T_Scon_UGLG,349.9, hit,1,0
325,3, T_Scon, T_Scon_UGLG,449, hit,1,0
326,3, T_Scon, T_Scon_DRRR,380.5, hit,2,0
327,3, T_Scon, T_Scon_DRRR,407.9, hit,2,0
328,3, T_Scon, T_Scon_UGLG,371.3, hit,1,0
329,3, T_Scon, T_Scon_UGLG,334.8, hit,1,0
330,3, T_Sinc, T_Sinc_URRR,482.2, hit,2,0
331,3, T_Scon, T_Scon_DRRR,349.6, hit,2,0
332,3, T_Sinc, T_Sinc_URRR,525.1, hit,2,0
333,3, T_Scon, T_Scon_DRRR,440.5, hit,2,0
334,3, T_Scon, T_Scon_UGLG,436, hit,1,0
335,3, T_Sinc, T_Sinc_URRR,479.4, hit,2,0
336,3, T_Sinc, T_Sinc_URRR,458.9, hit,2,0
337,3, T_Sinc, T_Sinc_DGLG,398.3, hit,1,0
338,3, T_Scon, T_Scon_UGLG,341.7, hit,1,0
339,3, T_Scon, T_Scon_DRRR,385.1, hit,2,0
340,3, T_Sinc, T_Sinc_DGLG,460.6, hit,1,0
341,3, T_Sinc, T_Sinc_DGLG,480, hit,1,0
342,3, T_Scon, T_Scon_DRRR,499.4, hit,2,0
343,3, T_Scon, T_Scon_UGLG,362.9, hit,1,0
344,3, T_Scon, T_Scon_UGLG,358.4, hit,1,0
345,3, T_Sinc, T_Sinc_DGLG,409.7, incorrect,2,1
346,3, T_Scon, T_Scon_DRRR,601.2, hit,2,0
347,3, T_Sinc, T_Sinc_URRR,1352.7, incorrect,1,1
348,3, T_Sinc, T_Sinc_DGLG,524.1, hit,1,0
349,3, T_Scon, T_Scon_UGLG,295.5, hit,1,0
350,3, T_Scon, T_Scon_DRRR,403, hit,2,0
351,3, T_Scon, T_Scon_UGLG,358.4, hit,1,0
352,3, T_Scon, T_Scon_UGLG,465.9, hit,1,0
353,3, T_Scon, T_Scon_UGLG,437.3, hit,1,0
354,3, T_Scon, T_Scon_UGLG,252.7, hit,1,0
355,3, T_Scon, T_Scon_UGLG,264.2, hit,1,0
356,3, T_Scon, T_Scon_DRRR,411.6, hit,2,0
357,3, T_Scon, T_Scon_UGLG,543.1, hit,1,0
358,3, T_Scon, T_Scon_DRRR,466.5, hit,2,0
359,3, T_Scon, T_Scon_UGLG,585.9, hit,1,0
360,3, T_Scon, T_Scon_UGLG,365.4, hit,1,0
361,3, T_Scon, T_Scon_UGLG,388.6, hit,1,0
362,3, T_Scon, T_Scon_UGLG,256, hit,1,0
363,3, T_Sinc, T_Sinc_DGLG,407.4, hit,1,0
364,3, T_Scon, T_Scon_DRRR,450.8, hit,2,0
365,3, T_Sinc, T_Sinc_URRR,390.3, hit,2,0
366,3, T_Sinc, T_Sinc_DGLG,485.7, hit,1,0
367,3, T_Scon, T_Scon_DRRR,413.2, hit,2,0
368,3, T_Sinc, T_Sinc_URRR,388.6, hit,2,0
369,3, T_Scon, T_Scon_UGLG,408, hit,1,0
370,3, T_Scon, T_Scon_DRRR,319.5, hit,2,0
371,3, T_Scon, T_Scon_DRRR,522.9, hit,2,0
372,3, T_Scon, T_Scon_UGLG,490.3, hit,1,0
373,3, T_Scon, T_Scon_DRRR,437.8, hit,2,0
374,3, T_Sinc, T_Sinc_DGLG,457.2, hit,1,0
375,3, T_Scon, T_Scon_DRRR,540.6, hit,2,0
376,3, T_Scon, T_Scon_DRRR,408.1, hit,2,0
377,3, T_Sinc, T_Sinc_URRR,435.6, hit,2,0
378,3, T_Scon, T_Scon_DRRR,326.9, hit,2,0
379,3, T_Scon, T_Scon_DRRR,298.4, hit,2,0
380,3, T_Scon, T_Scon_UGLG,317.9, hit,1,0
381,3, T_Scon, T_Scon_DRRR,289.2, hit,2,0
382,3, T_Scon, T_Scon_DRRR,280.7, hit,2,0
383,3, T_Scon, T_Scon_DRRR,452.2, hit,2,0
384,3, T_Sinc, T_Sinc_DGLG,403.5, hit,1,0
385,3, T_Scon, T_Scon_UGLG,495, hit,1,0
386,3, T_Scon, T_Scon_UGLG,350.5, hit,1,0
387,3, T_Scon, T_Scon_DRRR,457.9, hit,2,0
388,3, T_Scon, T_Scon_UGLG,357.3, hit,1,0
389,3, T_Scon, T_Scon_DRRR,384.8, hit,2,0
390,3, T_Scon, T_Scon_DRRR,428.2, hit,2,0
391,3, T_Sinc, T_Sinc_DGLG,523.6, hit,1,0
392,3, T_Scon, T_Scon_DRRR,351.1, incorrect,1,1
393,3, T_Scon, T_Scon_UGLG,402.5, hit,1,0
394,3, T_Scon, T_Scon_DRRR,338, hit,2,0
395,3, T_Scon, T_Scon_DRRR,389.4, hit,2,0
396,3, T_Scon, T_Scon_DRRR,384.8, hit,2,0
397,3, T_Sinc, T_Sinc_DGLG,496, hit,1,0
398,3, T_Scon, T_Scon_DRRR,407.4, hit,2,0
399,3, T_Scon, T_Scon_DRRR,286.9, hit,2,0
400,3, T_Scon, T_Scon_DRRR,310.3, hit,2,0
401,3, T_Scon, T_Scon_DRRR,297.7, hit,2,0
402,3, T_Sinc, T_Sinc_DGLG,429.2, hit,1,0
403,3, T_Scon, T_Scon_DRRR,408.7, hit,2,0
404,3, T_Scon, T_Scon_DRRR,356, hit,2,0
405,3, T_Scon, T_Scon_UGLG,375.5, hit,1,0
406,3, T_Scon, T_Scon_DRRR,351, hit,2,0
407,3, T_Scon, T_Scon_DRRR,362.4, hit,2,0
408,3, T_Sinc, T_Sinc_URRR,433.8, hit,2,0
409,3, T_Sinc, T_Sinc_DGLG,413.3, hit,1,0
410,3, T_Scon, T_Scon_UGLG,540.7, hit,1,0
411,3, T_Sinc, T_Sinc_URRR,432.1, hit,2,0
412,3, T_Scon, T_Scon_UGLG,351.6, hit,1,0
413,3, T_Sinc, T_Sinc_DGLG,427, hit,1,0
414,3, T_Scon, T_Scon_UGLG,834.4, hit,1,2
415,3, T_Scon, T_Scon_DRRR,321.9, hit,2,0
416,3, T_Scon, T_Scon_DRRR,369.3, hit,2,0
417,3, T_Scon, T_Scon_UGLG,368.8, hit,1,0
418,3, T_Scon, T_Scon_DRRR,408.2, hit,2,0
419,3, T_Sinc, T_Sinc_URRR,715.6, hit,2,2
420,3, T_Scon, T_Scon_DRRR,399.1, hit,2,0
421,3, T_Sinc, T_Sinc_URRR,458.5, incorrect,1,1
422,3, T_Scon, T_Scon_UGLG,385.9, hit,1,0
423,3, T_Scon, T_Scon_DRRR,337.4, hit,2,0
424,3, T_Sinc, T_Sinc_URRR,524.9, hit,2,0
425,3, T_Sinc, T_Sinc_URRR,416.2, hit,2,0
426,3, T_Scon, T_Scon_UGLG,411.7, hit,1,0
427,3, T_Scon, T_Scon_DRRR,463.2, hit,2,0
428,3, T_Scon, T_Scon_DRRR,474.5, hit,2,0
429,3, T_Scon, T_Scon_UGLG,338, hit,1,0
430,3, T_Sinc, T_Sinc_DGLG,333.5, incorrect,2,1
431,3, T_Scon, T_Scon_UGLG,348.8, hit,1,0
432,3, T_Scon, T_Scon_UGLG,368.3, hit,1,0
433,4, T_Scon, T_Scon_DRRR,398.8, incorrect,1,1
434,4, T_Sinc, T_Sinc_DGLG,354.3, incorrect,2,1
435,4, T_Sinc, T_Sinc_URRR,617.8, hit,2,0
436,4, T_Scon, T_Scon_UGLG,321.1, hit,1,0
437,4, T_Scon, T_Scon_DRRR,336.6, hit,2,0
438,4, T_Scon, T_Scon_DRRR,336.1, hit,2,0
439,4, T_Sinc, T_Sinc_URRR,291.4, incorrect,1,1
440,4, T_Sinc, T_Sinc_DGLG,390.9, hit,1,0
441,4, T_Sinc, T_Sinc_DGLG,442.4, hit,1,0
442,4, T_Sinc, T_Sinc_DGLG,361.8, hit,1,0
443,4, T_Sinc, T_Sinc_URRR,449.2, hit,2,0
444,4, T_Sinc, T_Sinc_DGLG,504.7, hit,1,0
445,4, T_Sinc, T_Sinc_DGLG,492, hit,1,0
446,4, T_Scon, T_Scon_DRRR,403.5, hit,2,0
447,4, T_Sinc, T_Sinc_URRR,399, hit,2,0
448,4, T_Sinc, T_Sinc_DGLG,394.5, hit,1,0
449,4, T_Scon, T_Scon_DRRR,465.8, hit,2,0
450,4, T_Sinc, T_Sinc_URRR,597.3, hit,2,0
451,4, T_Scon, T_Scon_UGLG,448.7, hit,1,0
452,4, T_Sinc, T_Sinc_DGLG,328.1, hit,1,0
453,4, T_Scon, T_Scon_UGLG,427.6, hit,1,0
454,4, T_Sinc, T_Sinc_DGLG,379.1, hit,1,0
455,4, T_Sinc, T_Sinc_URRR,414.4, hit,2,0
456,4, T_Sinc, T_Sinc_URRR,345.9, hit,2,0
457,4, T_Scon, T_Scon_DRRR,457.4, hit,2,0
458,4, T_Sinc, T_Sinc_URRR,440.8, hit,2,0
459,4, T_Scon, T_Scon_DRRR,388.2, hit,2,0
460,4, T_Scon, T_Scon_DRRR,267.7, hit,2,0
461,4, T_Scon, T_Scon_UGLG,487, hit,1,0
462,4, T_Sinc, T_Sinc_DGLG,346.5, hit,1,0
463,4, T_Sinc, T_Sinc_URRR,434, hit,2,0
464,4, T_Scon, T_Scon_UGLG,489.4, hit,1,0
465,4, T_Sinc, T_Sinc_URRR,508.8, hit,2,0
466,4, T_Scon, T_Scon_UGLG,416.3, hit,1,0
467,4, T_Sinc, T_Sinc_URRR,455.8, hit,2,0
468,4, T_Sinc, T_Sinc_URRR,359.1, incorrect,1,1
469,4, T_Sinc, T_Sinc_DGLG,590.4, hit,1,0
470,4, T_Sinc, T_Sinc_URRR,405.8, hit,2,0
471,4, T_Sinc, T_Sinc_URRR,521.3, hit,2,0
472,4, T_Scon, T_Scon_UGLG,492.6, hit,1,0
473,4, T_Scon, T_Scon_UGLG,488.1, hit,1,0
474,4, T_Scon, T_Scon_DRRR,475.6, hit,2,0
475,4, T_Sinc, T_Sinc_DGLG,486.9, hit,1,0
476,4, T_Sinc, T_Sinc_DGLG,386.4, hit,1,0
477,4, T_Sinc, T_Sinc_DGLG,429.9, hit,1,0
478,4, T_Sinc, T_Sinc_DGLG,309.2, hit,1,0
479,4, T_Sinc, T_Sinc_DGLG,320.7, hit,1,0
480,4, T_Sinc, T_Sinc_DGLG,312.1, hit,1,0
481,4, T_Sinc, T_Sinc_URRR,447.6, hit,2,0
482,4, T_Sinc, T_Sinc_DGLG,451, hit,1,0
483,4, T_Scon, T_Scon_UGLG,354.5, hit,1,0
484,4, T_Sinc, T_Sinc_URRR,421.9, hit,2,0
485,4, T_Sinc, T_Sinc_URRR,377.3, hit,2,0
486,4, T_Scon, T_Scon_DRRR,332.8, hit,2,0
487,4, T_Sinc, T_Sinc_URRR,448.2, hit,2,0
488,4, T_Sinc, T_Sinc_URRR,339.7, hit,2,0
489,4, T_Sinc, T_Sinc_URRR,343, hit,2,0
490,4, T_Sinc, T_Sinc_DGLG,386.5, hit,1,0
491,4, T_Sinc, T_Sinc_DGLG,574, hit,1,0
492,4, T_Scon, T_Scon_UGLG,769.3, hit,1,2
493,4, T_Scon, T_Scon_UGLG,396.8, hit,1,0
494,4, T_Sinc, T_Sinc_URRR,596.3, hit,2,0
495,4, T_Scon, T_Scon_DRRR,371.7, hit,2,0
496,4, T_Sinc, T_Sinc_URRR,443.1, hit,2,0
497,4, T_Sinc, T_Sinc_URRR,382.6, hit,2,0
498,4, T_Sinc, T_Sinc_URRR,337.9, hit,2,0
499,4, T_Sinc, T_Sinc_DGLG,361.4, hit,1,0
500,4, T_Sinc, T_Sinc_URRR,508.9, hit,2,0
501,4, T_Sinc, T_Sinc_DGLG,424.3, hit,1,0
502,4, T_Sinc, T_Sinc_URRR,567.7, hit,2,0
503,4, T_Sinc, T_Sinc_DGLG,363.2, hit,1,0
504,4, T_Scon, T_Scon_UGLG,326.6, hit,1,0
505,4, T_Sinc, T_Sinc_DGLG,413.8, hit,1,0
506,4, T_Sinc, T_Sinc_URRR,297.2, hit,2,0
507,4, T_Sinc, T_Sinc_DGLG,348.7, hit,1,0
508,4, T_Scon, T_Scon_UGLG,328.1, hit,1,0
509,4, T_Sinc, T_Sinc_URRR,459.5, hit,2,0
510,4, T_Sinc, T_Sinc_DGLG,443, hit,1,0
511,4, T_Sinc, T_Sinc_URRR,414.4, hit,2,0
512,4, T_Sinc, T_Sinc_DGLG,425.8, hit,1,0
513,4, T_Scon, T_Scon_UGLG,521.3, hit,1,0
514,4, T_Sinc, T_Sinc_URRR,436.8, hit,2,0
515,4, T_Sinc, T_Sinc_DGLG,376.2, hit,1,0
516,4, T_Scon, T_Scon_DRRR,339.6, hit,2,0
517,4, T_Sinc, T_Sinc_DGLG,499, hit,1,0
518,4, T_Sinc, T_Sinc_DGLG,294.4, hit,1,0
519,4, T_Sinc, T_Sinc_DGLG,273.9, hit,1,0
520,4, T_Scon, T_Scon_UGLG,401.4, incorrect,2,1
521,4, T_Scon, T_Scon_DRRR,440.8, hit,2,0
522,4, T_Scon, T_Scon_DRRR,512.2, hit,2,0
523,4, T_Sinc, T_Sinc_URRR,403.7, hit,2,0
524,4, T_Sinc, T_Sinc_DGLG,403.1, hit,1,0
525,4, T_Sinc, T_Sinc_URRR,442.5, hit,2,0
526,4, T_Sinc, T_Sinc_DGLG,374, hit,1,0
527,4, T_Sinc, T_Sinc_URRR,441.4, hit,2,0
528,4, T_Sinc, T_Sinc_URRR,460.9, hit,2,0
529,4, T_Sinc, T_Sinc_URRR,472.3, hit,2,0
530,4, T_Sinc, T_Sinc_DGLG,411.7, hit,1,0
531,4, T_Sinc, T_Sinc_DGLG,403.2, hit,1,0
532,4, T_Sinc, T_Sinc_DGLG,346.6, hit,1,0
533,4, T_Scon, T_Scon_UGLG,382, hit,1,0
534,4, T_Sinc, T_Sinc_URRR,457.5, hit,2,0
535,4, T_Scon, T_Scon_DRRR,532.9, hit,2,0
536,4, T_Scon, T_Scon_DRRR,480.4, hit,2,0
537,4, T_Sinc, T_Sinc_DGLG,463.8, hit,1,0
538,4, T_Sinc, T_Sinc_URRR,999.2, incorrect,1,1
539,4, T_Sinc, T_Sinc_DGLG,290.7, hit,1,0
540,4, T_Sinc, T_Sinc_URRR,562.1, hit,2,0
541,4, T_Sinc, T_Sinc_DGLG,345.3, hit,1,0
542,4, T_Scon, T_Scon_UGLG,340.7, hit,1,0
543,4, T_Sinc, T_Sinc_URRR,412.2, hit,2,0
544,4, T_Sinc, T_Sinc_DGLG,279.6, hit,1,0
545,4, T_Sinc, T_Sinc_URRR,455, hit,2,0
546,4, T_Sinc, T_Sinc_DGLG,378.5, hit,1,0
547,4, T_Sinc, T_Sinc_URRR,582, hit,2,0
548,4, T_Sinc, T_Sinc_URRR,481.3, hit,2,0
549,4, T_Sinc, T_Sinc_URRR,312.8, hit,2,0
550,4, T_Scon, T_Scon_UGLG,428.3, hit,1,0
551,4, T_Sinc, T_Sinc_DGLG,279.7, hit,1,0
552,4, T_Scon, T_Scon_DRRR,787.1, hit,2,2
553,4, T_Sinc, T_Sinc_URRR,502.6, hit,2,0
554,4, T_Sinc, T_Sinc_URRR,433.9, hit,2,0
555,4, T_Sinc, T_Sinc_DGLG,525.4, hit,1,0
556,4, T_Sinc, T_Sinc_URRR,528.9, hit,2,0
557,4, T_Sinc, T_Sinc_URRR,356.4, hit,2,0
558,4, T_Sinc, T_Sinc_URRR,319.7, hit,2,0
559,4, T_Sinc, T_Sinc_DGLG,415.2, hit,1,0
560,4, T_Sinc, T_Sinc_URRR,498.6, hit,2,0
561,4, T_Sinc, T_Sinc_DGLG,446, hit,1,0
562,4, T_Sinc, T_Sinc_URRR,513.5, hit,2,0
563,4, T_Sinc, T_Sinc_DGLG,444.9, hit,1,0
564,4, T_Sinc, T_Sinc_URRR,452.4, hit,2,0
565,4, T_Sinc, T_Sinc_URRR,583.8, hit,2,0
566,4, T_Sinc, T_Sinc_DGLG,415.2, hit,1,0
567,4, T_Sinc, T_Sinc_DGLG,330.7, hit,1,0
568,4, T_Sinc, T_Sinc_URRR,430.1, hit,2,0
569,4, T_Sinc, T_Sinc_DGLG,425.5, hit,1,0
570,4, T_Sinc, T_Sinc_DGLG,389, hit,1,0
571,4, T_Sinc, T_Sinc_DGLG,368.5, hit,1,0
572,4, T_Sinc, T_Sinc_DGLG,131.8, hit,1,3
573,4, T_Sinc, T_Sinc_DGLG,263.3, hit,1,0
574,4, T_Scon, T_Scon_DRRR,418.8, hit,2,0
575,4, T_Sinc, T_Sinc_DGLG,366.2, hit,1,0
576,4, T_Sinc, T_Sinc_URRR,437.6, hit,2,0
577,5, T_Sinc, T_Sinc_DGLG,320.8, hit,1,0
578,5, T_Sinc, T_Sinc_URRR,416.3, hit,2,0
579,5, T_Sinc, T_Sinc_DGLG,439.6, hit,1,0
580,5, T_Sinc, T_Sinc_URRR,299.1, hit,2,0
581,5, T_Sinc, T_Sinc_DGLG,334.6, hit,1,0
582,5, T_Sinc, T_Sinc_URRR,505.9, hit,2,0
583,5, T_Sinc, T_Sinc_DGLG,325.4, hit,1,0
584,5, T_Sinc, T_Sinc_DGLG,336.9, hit,1,0
585,5, T_Sinc, T_Sinc_DGLG,252.2, hit,1,0
586,5, T_Sinc, T_Sinc_DGLG,215.7, hit,1,0
587,5, T_Scon, T_Scon_UGLG,355.2, hit,1,0
588,5, T_Sinc, T_Sinc_DGLG,374.5, hit,1,0
589,5, T_Scon, T_Scon_UGLG,306, hit,1,0
590,5, T_Sinc, T_Sinc_URRR,381.5, hit,2,0
591,5, T_Sinc, T_Sinc_DGLG,316.8, hit,1,0
592,5, T_Scon, T_Scon_DRRR,336.4, incorrect,1,1
593,5, T_Sinc, T_Sinc_DGLG,363.8, hit,1,0
594,5, T_Sinc, T_Sinc_DGLG,347.2, hit,1,0
595,5, T_Sinc, T_Sinc_DGLG,278.6, hit,1,0
596,5, T_Sinc, T_Sinc_URRR,450.1, hit,2,0
597,5, T_Sinc, T_Sinc_DGLG,353.6, hit,1,0
598,5, T_Sinc, T_Sinc_URRR,412.9, incorrect,1,1
599,5, T_Sinc, T_Sinc_DGLG,384.4, hit,1,0
600,5, T_Sinc, T_Sinc_DGLG,275.9, hit,1,0
601,5, T_Sinc, T_Sinc_URRR,463.2, hit,2,0
602,5, T_Sinc, T_Sinc_DGLG,382.7, hit,1,0
603,5, T_Sinc, T_Sinc_URRR,394.2, hit,2,0
604,5, T_Scon, T_Scon_DRRR,353.6, incorrect,1,1
605,5, T_Scon, T_Scon_DRRR,465, hit,2,0
606,5, T_Sinc, T_Sinc_URRR,328.5, hit,2,0
607,5, T_Sinc, T_Sinc_DGLG,336, hit,1,0
608,5, T_Sinc, T_Sinc_URRR,331.3, hit,2,0
609,5, T_Sinc, T_Sinc_DGLG,258.8, hit,1,0
610,5, T_Sinc, T_Sinc_DGLG,614.3, hit,1,0
611,5, T_Sinc, T_Sinc_DGLG,361.6, hit,1,0
612,5, T_Scon, T_Scon_UGLG,381.1, hit,1,0
613,5, T_Sinc, T_Sinc_DGLG,300.3, hit,1,0
614,5, T_Sinc, T_Sinc_DGLG,295.7, hit,1,0
615,5, T_Sinc, T_Sinc_DGLG,323.1, hit,1,0
616,5, T_Sinc, T_Sinc_DGLG,270.6, hit,1,0
617,5, T_Scon, T_Scon_DRRR,438, hit,2,0
618,5, T_Sinc, T_Sinc_URRR,465.4, hit,2,0
619,5, T_Sinc, T_Sinc_URRR,280.9, hit,2,0
620,5, T_Sinc, T_Sinc_URRR,320.3, hit,2,0
621,5, T_Scon, T_Scon_UGLG,351.8, incorrect,2,1
622,5, T_Sinc, T_Sinc_DGLG,339.2, hit,1,0
623,5, T_Sinc, T_Sinc_DGLG,310.6, hit,1,0
624,5, T_Sinc, T_Sinc_URRR,626, hit,2,0
625,5, T_Sinc, T_Sinc_URRR,509.5, hit,2,0
626,5, T_Sinc, T_Sinc_DGLG,288.9, hit,1,0
627,5, T_Sinc, T_Sinc_DGLG,372.4, hit,1,0
628,5, T_Sinc, T_Sinc_DGLG,319.8, hit,1,0
629,5, T_Scon, T_Scon_UGLG,411.3, hit,1,0
630,5, T_Scon, T_Scon_UGLG,306.7, hit,1,0
631,5, T_Sinc, T_Sinc_URRR,450.2, hit,2,0
632,5, T_Sinc, T_Sinc_URRR,345.6, hit,2,0
633,5, T_Scon, T_Scon_DRRR,429, hit,2,0
634,5, T_Sinc, T_Sinc_URRR,336.5, hit,2,0
635,5, T_Scon, T_Scon_DRRR,375.9, hit,2,0
636,5, T_Sinc, T_Sinc_URRR,291.3, hit,2,0
637,5, T_Sinc, T_Sinc_URRR,338.8, hit,2,0
638,5, T_Sinc, T_Sinc_URRR,258.2, hit,2,0
639,5, T_Scon, T_Scon_UGLG,393.6, hit,1,0
640,5, T_Sinc, T_Sinc_URRR,445.1, hit,2,0
641,5, T_Scon, T_Scon_UGLG,520.4, hit,1,0
642,5, T_Sinc, T_Sinc_DGLG,419.9, hit,1,0
643,5, T_Sinc, T_Sinc_URRR,415.4, hit,2,0
644,5, T_Sinc, T_Sinc_DGLG,514.9, hit,1,0
645,5, T_Sinc, T_Sinc_DGLG,422.2, hit,1,0
646,5, T_Sinc, T_Sinc_DGLG,333.7, hit,1,0
647,5, T_Sinc, T_Sinc_URRR,613.2, hit,2,0
648,5, T_Sinc, T_Sinc_DGLG,396.5, hit,1,0
649,5, T_Sinc, T_Sinc_URRR,479.7, hit,2,0
650,5, T_Sinc, T_Sinc_DGLG,367.2, hit,1,0
651,5, T_Scon, T_Scon_UGLG,410.6, hit,1,0
652,5, T_Sinc, T_Sinc_URRR,446, hit,2,0
653,5, T_Scon, T_Scon_UGLG,417.5, hit,1,0
654,5, T_Sinc, T_Sinc_URRR,373, hit,2,0
655,5, T_Sinc, T_Sinc_URRR,312.3, incorrect,1,1
656,5, T_Sinc, T_Sinc_URRR,507.8, hit,2,0
657,5, T_Scon, T_Scon_DRRR,339.3, hit,2,0
658,5, T_Sinc, T_Sinc_URRR,314.6, hit,2,0
659,5, T_Sinc, T_Sinc_URRR,270.1, hit,2,0
660,5, T_Sinc, T_Sinc_DGLG,409.6, hit,1,0
661,5, T_Sinc, T_Sinc_URRR,496.9, hit,2,0
662,5, T_Sinc, T_Sinc_DGLG,416.4, hit,1,0
663,5, T_Sinc, T_Sinc_URRR,475.9, hit,2,0
664,5, T_Scon, T_Scon_UGLG,439.4, hit,1,0
665,5, T_Sinc, T_Sinc_URRR,474.7, hit,2,0
666,5, T_Sinc, T_Sinc_URRR,550.2, hit,2,0
667,5, T_Sinc, T_Sinc_DGLG,417.7, hit,1,0
668,5, T_Sinc, T_Sinc_DGLG,445, hit,1,0
669,5, T_Scon, T_Scon_UGLG,352.5, hit,1,0
670,5, T_Sinc, T_Sinc_URRR,516, hit,2,0
671,5, T_Sinc, T_Sinc_DGLG,547.3, hit,1,0
672,5, T_Sinc, T_Sinc_DGLG,486.8, hit,1,0
673,5, T_Scon, T_Scon_DRRR,618.3, hit,2,0
674,5, T_Sinc, T_Sinc_URRR,525.7, hit,2,0
675,5, T_Sinc, T_Sinc_URRR,389.1, hit,2,0
676,5, T_Scon, T_Scon_DRRR,412.6, hit,2,0
677,5, T_Sinc, T_Sinc_DGLG,428.1, hit,1,0
678,5, T_Sinc, T_Sinc_DGLG,315.4, hit,1,0
679,5, T_Sinc, T_Sinc_URRR,510.9, hit,2,0
680,5, T_Scon, T_Scon_DRRR,430.4, hit,2,0
681,5, T_Scon, T_Scon_UGLG,433.7, hit,1,0
682,5, T_Scon, T_Scon_DRRR,405.2, hit,2,0
683,5, T_Sinc, T_Sinc_DGLG,392.7, incorrect,2,1
684,5, T_Sinc, T_Sinc_DGLG,328, hit,1,0
685,5, T_Scon, T_Scon_DRRR,423.3, incorrect,1,1
686,5, T_Scon, T_Scon_UGLG,490.7, hit,1,0
687,5, T_Sinc, T_Sinc_DGLG,538.1, hit,1,0
688,5, T_Sinc, T_Sinc_DGLG,405.5, hit,1,0
689,5, T_Sinc, T_Sinc_URRR,377, hit,2,0
690,5, T_Scon, T_Scon_UGLG,360.5, hit,1,0
691,5, T_Sinc, T_Sinc_URRR,323.8, hit,2,0
692,5, T_Sinc, T_Sinc_DGLG,407.3, hit,1,0
693,5, T_Sinc, T_Sinc_URRR,522.8, hit,2,0
694,5, T_Scon, T_Scon_DRRR,430.1, hit,2,0
695,5, T_Sinc, T_Sinc_URRR,381.6, hit,2,0
696,5, T_Scon, T_Scon_DRRR,289.1, hit,2,0
697,5, T_Sinc, T_Sinc_URRR,332.5, hit,2,0
698,5, T_Sinc, T_Sinc_URRR,279.9, hit,2,0
699,5, T_Scon, T_Scon_UGLG,383.4, hit,1,0
700,5, T_Sinc, T_Sinc_DGLG,314.9, incorrect,2,1
701,5, T_Sinc, T_Sinc_DGLG,422.2, hit,1,0
702,5, T_Sinc, T_Sinc_DGLG,357.7, hit,1,0
703,5, T_Scon, T_Scon_DRRR,553.2, hit,2,0
704,5, T_Scon, T_Scon_UGLG,468.5, hit,1,0
705,5, T_Sinc, T_Sinc_URRR,632, hit,2,0
706,5, T_Sinc, T_Sinc_DGLG,363.5, hit,1,0
707,5, T_Sinc, T_Sinc_URRR,550.8, hit,2,0
708,5, T_Sinc, T_Sinc_URRR,406.3, hit,2,0
709,5, T_Sinc, T_Sinc_URRR,425.8, hit,2,0
710,5, T_Sinc, T_Sinc_URRR,373.2, hit,2,0
711,5, T_Scon, T_Scon_DRRR,392.6, hit,2,0
712,5, T_Sinc, T_Sinc_URRR,416.1, hit,2,0
713,5, T_Sinc, T_Sinc_DGLG,435.5, hit,1,0
714,5, T_Sinc, T_Sinc_URRR,414.9, hit,2,0
715,5, T_Scon, T_Scon_DRRR,498.4, hit,2,0
716,5, T_Sinc, T_Sinc_DGLG,465.8, hit,1,0
717,5, T_Scon, T_Scon_DRRR,541.2, hit,2,0
718,5, T_Sinc, T_Sinc_URRR,520.7, hit,2,0
719,5, T_Scon, T_Scon_UGLG,344.1, hit,1,0
720,5, T_Sinc, T_Sinc_URRR,407.5, hit,2,0
721,6, T_Sinc, T_Sinc_URRR,391.7, hit,2,0
722,6, T_Scon, T_Scon_UGLG,327.1, hit,1,0
723,6, T_Sinc, T_Sinc_URRR,310.5, hit,2,0
724,6, T_Scon, T_Scon_DRRR,418, hit,2,0
725,6, T_Scon, T_Scon_UGLG,397.4, incorrect,2,1
726,6, T_Scon, T_Scon_UGLG,392.9, hit,1,0
727,6, T_Sinc, T_Sinc_URRR,420.3, hit,2,0
728,6, T_Sinc, T_Sinc_URRR,291.7, hit,2,0
729,6, T_Scon, T_Scon_UGLG,343.2, hit,1,0
730,6, T_Sinc, T_Sinc_DGLG,278.6, hit,1,0
731,6, T_Sinc, T_Sinc_URRR,486, hit,2,0
732,6, T_Sinc, T_Sinc_URRR,301.5, hit,2,0
733,6, T_Sinc, T_Sinc_DGLG,432.9, hit,1,0
734,6, T_Sinc, T_Sinc_URRR,328.4, hit,2,0
735,6, T_Sinc, T_Sinc_URRR,339.8, hit,2,0
736,6, T_Sinc, T_Sinc_DGLG,383.2, hit,1,0
737,6, T_Scon, T_Scon_DRRR,322.7, hit,2,0
738,6, T_Sinc, T_Sinc_DGLG,326.1, hit,1,0
739,6, T_Sinc, T_Sinc_DGLG,361.6, hit,1,0
740,6, T_Scon, T_Scon_DRRR,601, hit,2,0
741,6, T_Sinc, T_Sinc_DGLG,404.4, hit,1,0
742,6, T_Sinc, T_Sinc_DGLG,455.9, hit,1,0
743,6, T_Sinc, T_Sinc_DGLG,415.3, hit,1,0
744,6, T_Sinc, T_Sinc_URRR,402.8, hit,2,0
745,6, T_Sinc, T_Sinc_URRR,534.2, hit,2,0
746,6, T_Sinc, T_Sinc_URRR,297.6, hit,2,0
747,6, T_Scon, T_Scon_DRRR,405.1, hit,2,0
748,6, T_Sinc, T_Sinc_DGLG,440.5, hit,1,0
749,6, T_Sinc, T_Sinc_URRR,455.9, hit,2,0
750,6, T_Sinc, T_Sinc_DGLG,467.4, hit,1,0
751,6, T_Sinc, T_Sinc_URRR,446.8, hit,2,0
752,6, T_Sinc, T_Sinc_DGLG,546.2, hit,1,0
753,6, T_Sinc, T_Sinc_DGLG,345.7, hit,1,0
754,6, T_Sinc, T_Sinc_DGLG,293.2, hit,1,0
755,6, T_Sinc, T_Sinc_DGLG,328.5, hit,1,0
756,6, T_Sinc, T_Sinc_URRR,356, hit,2,0
757,6, T_Sinc, T_Sinc_URRR,475.2, hit,2,0
758,6, T_Sinc, T_Sinc_URRR,246.6, hit,2,0
759,6, T_Sinc, T_Sinc_DGLG,482, hit,1,0
760,6, T_Sinc, T_Sinc_DGLG,433.5, hit,1,0
761,6, T_Scon, T_Scon_DRRR,388.9, hit,2,0
762,6, T_Sinc, T_Sinc_DGLG,216.3, incorrect,2,1
763,6, T_Sinc, T_Sinc_URRR,483.8, hit,2,0
764,6, T_Scon, T_Scon_UGLG,375.3, hit,1,0
765,6, T_Scon, T_Scon_UGLG,370.6, hit,1,0
766,6, T_Sinc, T_Sinc_URRR,486.1, hit,2,0
767,6, T_Sinc, T_Sinc_DGLG,397.6, hit,1,0
768,6, T_Sinc, T_Sinc_URRR,496.9, hit,2,0
769,6, T_Sinc, T_Sinc_DGLG,564.4, hit,1,0
770,6, T_Sinc, T_Sinc_DGLG,319.9, hit,1,0
771,6, T_Sinc, T_Sinc_URRR,519.2, hit,2,0
772,6, T_Scon, T_Scon_UGLG,446.7, hit,1,0
773,6, T_Scon, T_Scon_DRRR,522.2, hit,2,0
774,6, T_Scon, T_Scon_DRRR,469.6, hit,2,0
775,6, T_Scon, T_Scon_UGLG,445, hit,1,0
776,6, T_Sinc, T_Sinc_DGLG,476.5, hit,1,0
777,6, T_Sinc, T_Sinc_URRR,491.9, hit,2,0
778,6, T_Sinc, T_Sinc_URRR,367.3, hit,2,0
779,6, T_Sinc, T_Sinc_DGLG,386.8, hit,1,0
780,6, T_Sinc, T_Sinc_URRR,550.2, hit,2,0
781,6, T_Scon, T_Scon_UGLG,529.6, hit,1,0
782,6, T_Sinc, T_Sinc_URRR,669.1, hit,2,0
783,6, T_Scon, T_Scon_UGLG,504.5, hit,1,0
784,6, T_Scon, T_Scon_DRRR,524, hit,2,0
785,6, T_Sinc, T_Sinc_URRR,507.4, hit,2,0
786,6, T_Sinc, T_Sinc_DGLG,522.8, hit,1,0
787,6, T_Sinc, T_Sinc_DGLG,354.3, hit,1,0
788,6, T_Sinc, T_Sinc_URRR,485.8, hit,2,0
789,6, T_Scon, T_Scon_UGLG,425.1, hit,1,0
790,6, T_Sinc, T_Sinc_URRR,408.6, hit,2,0
791,6, T_Sinc, T_Sinc_URRR,556.1, hit,2,0
792,6, T_Sinc, T_Sinc_URRR,415.4, hit,2,0
793,6, T_Scon, T_Scon_UGLG,386.6, hit,1,0
794,6, T_Scon, T_Scon_DRRR,506.1, hit,2,0
795,6, T_Sinc, T_Sinc_URRR,373.5, hit,2,0
796,6, T_Sinc, T_Sinc_URRR,348.9, hit,2,0
797,6, T_Sinc, T_Sinc_DGLG,412.4, hit,1,0
798,6, T_Scon, T_Scon_UGLG,387.8, hit,1,0
799,6, T_Sinc, T_Sinc_DGLG,319.2, hit,1,0
800,6, T_Sinc, T_Sinc_URRR,610.7, hit,2,0
801,6, T_Scon, T_Scon_UGLG,406.2, hit,1,0
802,6, T_Sinc, T_Sinc_DGLG,377.5, hit,1,0
803,6, T_Sinc, T_Sinc_DGLG,317, hit,1,0
804,6, T_Sinc, T_Sinc_URRR,432.5, hit,2,0
805,6, T_Sinc, T_Sinc_DGLG,423.8, hit,1,0
806,6, T_Sinc, T_Sinc_DGLG,343.3, hit,1,0
807,6, T_Sinc, T_Sinc_URRR,434.8, incorrect,1,1
808,6, T_Scon, T_Scon_DRRR,466.1, hit,2,0
809,6, T_Sinc, T_Sinc_DGLG,245.6, incorrect,2,1
810,6, T_Scon, T_Scon_UGLG,281.1, hit,1,0
811,6, T_Scon, T_Scon_DRRR,400.5, incorrect,1,1
812,6, T_Sinc, T_Sinc_DGLG,387.9, hit,1,0
813,6, T_Scon, T_Scon_DRRR,367.4, hit,2,0
814,6, T_Scon, T_Scon_UGLG,354.8, hit,1,0
815,6, T_Sinc, T_Sinc_URRR,518.2, hit,2,0
816,6, T_Sinc, T_Sinc_URRR,377.7, hit,2,0
817,6, T_Scon, T_Scon_UGLG,397.1, hit,1,0
818,6, T_Sinc, T_Sinc_URRR,376.5, hit,2,0
819,6, T_Scon, T_Scon_DRRR,412, hit,2,0
820,6, T_Sinc, T_Sinc_URRR,527.5, hit,2,0
821,6, T_Scon, T_Scon_DRRR,530.8, hit,2,0
822,6, T_Sinc, T_Sinc_URRR,182.3, incorrect,1,1
823,6, T_Sinc, T_Sinc_DGLG,305.8, hit,1,0
824,6, T_Scon, T_Scon_DRRR,485.3, hit,2,0
825,6, T_Sinc, T_Sinc_DGLG,444.6, hit,1,0
826,6, T_Sinc, T_Sinc_DGLG,416.1, hit,1,0
827,6, T_Sinc, T_Sinc_DGLG,467.6, hit,1,0
828,6, T_Sinc, T_Sinc_URRR,662.9, incorrect,1,1
829,6, T_Sinc, T_Sinc_DGLG,962.1, incorrect,2,1
830,6, T_Sinc, T_Sinc_URRR,717.6, hit,2,2
831,6, T_Sinc, T_Sinc_URRR,289, hit,2,0
832,6, T_Sinc, T_Sinc_URRR,264.4, hit,2,0
833,6, T_Sinc, T_Sinc_URRR,307.9, hit,2,0
834,6, T_Sinc, T_Sinc_DGLG,399.3, hit,1,0
835,6, T_Sinc, T_Sinc_DGLG,410.7, hit,1,0
836,6, T_Scon, T_Scon_DRRR,430.2, hit,2,0
837,6, T_Sinc, T_Sinc_URRR,353.7, hit,2,0
838,6, T_Sinc, T_Sinc_DGLG,345, hit,1,0
839,6, T_Sinc, T_Sinc_URRR,400.5, hit,2,0
840,6, T_Sinc, T_Sinc_DGLG,400, hit,1,0
841,6, T_Sinc, T_Sinc_DGLG,343.3, incorrect,2,1
842,6, T_Sinc, T_Sinc_DGLG,394.8, hit,1,0
843,6, T_Sinc, T_Sinc_DGLG,410.3, hit,1,0
844,6, T_Scon, T_Scon_DRRR,457.7, hit,2,0
845,6, T_Scon, T_Scon_DRRR,745.1, hit,2,2
846,6, T_Sinc, T_Sinc_DGLG,480.6, hit,1,0
847,6, T_Sinc, T_Sinc_URRR,620, hit,2,0
848,6, T_Sinc, T_Sinc_DGLG,451.4, hit,1,0
849,6, T_Sinc, T_Sinc_URRR,446.9, hit,2,0
850,6, T_Sinc, T_Sinc_DGLG,410.4, hit,1,0
851,6, T_Sinc, T_Sinc_URRR,509.7, hit,2,0
852,6, T_Sinc, T_Sinc_DGLG,365.2, incorrect,2,1
853,6, T_Sinc, T_Sinc_URRR,336.7, hit,2,0
854,6, T_Sinc, T_Sinc_DGLG,284.1, hit,1,0
855,6, T_Sinc, T_Sinc_DGLG,391.5, hit,1,0
856,6, T_Sinc, T_Sinc_URRR,543, hit,2,0
857,6, T_Sinc, T_Sinc_URRR,422.4, hit,2,0
858,6, T_Sinc, T_Sinc_DGLG,425.9, hit,1,0
859,6, T_Sinc, T_Sinc_URRR,405.3, incorrect,1,1
860,6, T_Sinc, T_Sinc_URRR,440.7, hit,2,0
861,6, T_Sinc, T_Sinc_DGLG,380.1, hit,1,0
862,6, T_Sinc, T_Sinc_DGLG,327.6, hit,1,0
863,6, T_Sinc, T_Sinc_DGLG,247, hit,1,0
864,6, T_Scon, T_Scon_UGLG,386.5, hit,1,0
865,7, T_Scon, T_Scon_DRRR,425.8, hit,2,0
866,7, T_Scon, T_Scon_UGLG,329.1, hit,1,0
867,7, T_Scon, T_Scon_UGLG,316.6, hit,1,0
868,7, T_Scon, T_Scon_UGLG,376, hit,1,0
869,7, T_Scon, T_Scon_UGLG,279.5, hit,1,0
870,7, T_Sinc, T_Sinc_DGLG,418.9, hit,1,0
871,7, T_Scon, T_Scon_DRRR,470.3, hit,2,0
872,7, T_Sinc, T_Sinc_DGLG,409.8, hit,1,0
873,7, T_Scon, T_Scon_UGLG,361.2, hit,1,0
874,7, T_Scon, T_Scon_UGLG,260.6, hit,1,0
875,7, T_Scon, T_Scon_UGLG,312.1, hit,1,0
876,7, T_Sinc, T_Sinc_URRR,415.5, hit,2,0
877,7, T_Sinc, T_Sinc_DGLG,403, hit,1,0
878,7, T_Scon, T_Scon_UGLG,422.5, hit,1,0
879,7, T_Sinc, T_Sinc_DGLG,345.9, hit,1,0
880,7, T_Scon, T_Scon_DRRR,369.3, hit,2,0
881,7, T_Scon, T_Scon_DRRR,612.7, hit,2,0
882,7, T_Scon, T_Scon_DRRR,336.2, hit,2,0
883,7, T_Sinc, T_Sinc_URRR,475.6, hit,2,0
884,7, T_Sinc, T_Sinc_DGLG,559, hit,1,0
885,7, T_Scon, T_Scon_UGLG,314.5, hit,1,0
886,7, T_Sinc, T_Sinc_URRR,342, hit,2,0
887,7, T_Scon, T_Scon_UGLG,537.3, hit,1,0
888,7, T_Scon, T_Scon_UGLG,288.8, hit,1,0
889,7, T_Sinc, T_Sinc_DGLG,492.3, hit,1,0
890,7, T_Scon, T_Scon_DRRR,491.6, hit,2,0
891,7, T_Scon, T_Scon_DRRR,427.1, hit,2,0
892,7, T_Scon, T_Scon_DRRR,270.6, hit,2,0
893,7, T_Scon, T_Scon_UGLG,330.1, hit,1,0
894,7, T_Scon, T_Scon_DRRR,449.5, hit,2,0
895,7, T_Scon, T_Scon_DRRR,428.9, hit,2,0
896,7, T_Scon, T_Scon_DRRR,300.4, hit,2,0
897,7, T_Scon, T_Scon_DRRR,271.7, hit,2,0
898,7, T_Scon, T_Scon_DRRR,227.2, hit,2,0
899,7, T_Scon, T_Scon_DRRR,226.6, hit,2,0
900,7, T_Sinc, T_Sinc_DGLG,378.1, hit,1,0
901,7, T_Scon, T_Scon_DRRR,457.3, hit,2,0
902,7, T_Scon, T_Scon_UGLG,316.7, hit,1,0
903,7, T_Sinc, T_Sinc_URRR,324.1, hit,2,0
904,7, T_Scon, T_Scon_DRRR,359.5, hit,2,0
905,7, T_Scon, T_Scon_UGLG,363, hit,1,0
906,7, T_Scon, T_Scon_UGLG,518.4, hit,1,0
907,7, T_Sinc, T_Sinc_DGLG,473.9, hit,1,0
908,7, T_Scon, T_Scon_DRRR,349.3, hit,2,0
909,7, T_Scon, T_Scon_UGLG,344.7, hit,1,0
910,7, T_Scon, T_Scon_UGLG,396.1, hit,1,0
911,7, T_Scon, T_Scon_UGLG,323.6, hit,1,0
912,7, T_Scon, T_Scon_DRRR,539, hit,2,0
913,7, T_Scon, T_Scon_DRRR,294.5, hit,2,0
914,7, T_Sinc, T_Sinc_URRR,381.9, hit,2,0
915,7, T_Scon, T_Scon_UGLG,369.4, hit,1,0
916,7, T_Scon, T_Scon_UGLG,260.8, hit,1,0
917,7, T_Scon, T_Scon_UGLG,280.2, hit,1,0
918,7, T_Sinc, T_Sinc_DGLG,355.7, hit,1,0
919,7, T_Scon, T_Scon_DRRR,363.1, hit,2,0
920,7, T_Scon, T_Scon_DRRR,482.6, hit,2,0
921,7, T_Scon, T_Scon_DRRR,306, hit,2,0
922,7, T_Scon, T_Scon_UGLG,369.5, hit,1,0
923,7, T_Scon, T_Scon_DRRR,292.9, hit,2,0
924,7, T_Sinc, T_Sinc_URRR,304.3, incorrect,1,1
925,7, T_Scon, T_Scon_UGLG,307.7, hit,1,0
926,7, T_Scon, T_Scon_UGLG,415.2, hit,1,0
927,7, T_Scon, T_Scon_DRRR,374.6, hit,2,0
928,7, T_Scon, T_Scon_UGLG,422, hit,1,0
929,7, T_Scon, T_Scon_UGLG,377.5, hit,1,0
930,7, T_Scon, T_Scon_DRRR,413, hit,2,0
931,7, T_Sinc, T_Sinc_DGLG,368.3, hit,1,0
932,7, T_Scon, T_Scon_DRRR,355.8, hit,2,0
933,7, T_Sinc, T_Sinc_URRR,415.3, hit,2,0
934,7, T_Scon, T_Scon_DRRR,562.6, hit,2,0
935,7, T_Scon, T_Scon_DRRR,290.1, hit,2,0
936,7, T_Scon, T_Scon_UGLG,457.6, hit,1,0
937,7, T_Scon, T_Scon_UGLG,444.8, hit,1,0
938,7, T_Sinc, T_Sinc_URRR,352.1, incorrect,1,1
939,7, T_Scon, T_Scon_UGLG,379.6, hit,1,0
940,7, T_Scon, T_Scon_UGLG,375, hit,1,0
941,7, T_Scon, T_Scon_DRRR,378.4, hit,2,0
942,7, T_Scon, T_Scon_DRRR,253.9, hit,2,0
943,7, T_Scon, T_Scon_UGLG,429.4, hit,1,0
944,7, T_Scon, T_Scon_UGLG,344.7, hit,1,0
945,7, T_Scon, T_Scon_UGLG,284.2, hit,1,0
946,7, T_Sinc, T_Sinc_URRR,359.7, hit,2,0
947,7, T_Sinc, T_Sinc_URRR,583, hit,2,0
948,7, T_Sinc, T_Sinc_URRR,274.5, hit,2,0
949,7, T_Scon, T_Scon_DRRR,398, hit,2,0
950,7, T_Scon, T_Scon_DRRR,329.4, hit,2,0
951,7, T_Scon, T_Scon_DRRR,336.8, hit,2,0
952,7, T_Sinc, T_Sinc_DGLG,268.3, incorrect,2,1
953,7, T_Scon, T_Scon_UGLG,303.7, hit,1,0
954,7, T_Scon, T_Scon_DRRR,399.1, hit,2,0
955,7, T_Scon, T_Scon_UGLG,346.6, hit,1,0
956,7, T_Scon, T_Scon_DRRR,442, hit,2,0
957,7, T_Scon, T_Scon_UGLG,385.4, hit,1,0
958,7, T_Scon, T_Scon_UGLG,384.9, hit,1,0
959,7, T_Scon, T_Scon_UGLG,388.4, hit,1,0
960,7, T_Scon, T_Scon_DRRR,399.8, hit,2,0
961,7, T_Scon, T_Scon_UGLG,395.2, hit,1,0
962,7, T_Scon, T_Scon_DRRR,374.7, hit,2,0
963,7, T_Scon, T_Scon_UGLG,354.1, hit,1,0
964,7, T_Scon, T_Scon_DRRR,445.5, hit,2,0
965,7, T_Scon, T_Scon_DRRR,421, hit,2,0
966,7, T_Scon, T_Scon_UGLG,352.4, hit,1,0
967,7, T_Scon, T_Scon_UGLG,367.8, hit,1,0
968,7, T_Scon, T_Scon_DRRR,391.3, hit,2,0
969,7, T_Sinc, T_Sinc_URRR,346.8, incorrect,1,1
970,7, T_Scon, T_Scon_UGLG,438.1, hit,1,0
971,7, T_Scon, T_Scon_UGLG,341.6, hit,1,0
972,7, T_Scon, T_Scon_DRRR,433, hit,2,0
973,7, T_Scon, T_Scon_DRRR,440.2, hit,2,0
974,7, T_Scon, T_Scon_DRRR,287.6, hit,2,0
975,7, T_Sinc, T_Sinc_DGLG,343.1, hit,1,0
976,7, T_Sinc, T_Sinc_URRR,338.5, hit,2,0
977,7, T_Sinc, T_Sinc_URRR,333.9, hit,2,0
978,7, T_Sinc, T_Sinc_DGLG,389.4, hit,1,0
979,7, T_Scon, T_Scon_UGLG,440.8, hit,1,0
980,7, T_Scon, T_Scon_UGLG,308.2, hit,1,0
981,7, T_Sinc, T_Sinc_DGLG,399.7, hit,1,0
982,7, T_Scon, T_Scon_UGLG,323.1, hit,1,0
983,7, T_Scon, T_Scon_UGLG,270.6, hit,1,0
984,7, T_Scon, T_Scon_DRRR,601.9, hit,2,0
985,7, T_Sinc, T_Sinc_DGLG,417.4, hit,1,0
986,7, T_Scon, T_Scon_UGLG,364.9, hit,1,0
987,7, T_Scon, T_Scon_DRRR,432.3, hit,2,0
988,7, T_Scon, T_Scon_UGLG,451.7, hit,1,0
989,7, T_Scon, T_Scon_DRRR,367.2, hit,2,0
990,7, T_Sinc, T_Sinc_URRR,358.7, hit,2,0
991,7, T_Sinc, T_Sinc_DGLG,362, hit,1,0
992,7, T_Scon, T_Scon_DRRR,305.5, hit,2,0
993,7, T_Scon, T_Scon_DRRR,301, incorrect,1,1
994,7, T_Sinc, T_Sinc_DGLG,368.3, hit,1,0
995,7, T_Sinc, T_Sinc_DGLG,375.8, hit,1,0
996,7, T_Scon, T_Scon_UGLG,419.3, hit,1,0
997,7, T_Scon, T_Scon_UGLG,266.7, hit,1,0
998,7, T_Scon, T_Scon_UGLG,350.1, hit,1,0
999,7, T_Sinc, T_Sinc_URRR,505.6, hit,2,0
1000,7, T_Scon, T_Scon_DRRR,284.9, hit,2,0
1001,7, T_Sinc, T_Sinc_URRR,388.4, hit,2,0
1002,7, T_Scon, T_Scon_DRRR,271.9, hit,2,0
1003,7, T_Scon, T_Scon_DRRR,311.3, hit,2,0
1004,7, T_Scon, T_Scon_DRRR,266.7, hit,2,0
1005,7, T_Scon, T_Scon_DRRR,270.2, hit,2,0
1006,7, T_Scon, T_Scon_UGLG,393.6, hit,1,0
1007,7, T_Sinc, T_Sinc_URRR,369, incorrect,1,1
1008,7, T_Scon, T_Scon_DRRR,348.5, hit,2,0
1009,8, T_Scon, T_Scon_DRRR,409.5, hit,2,0
1010,8, T_Scon, T_Scon_UGLG,317, hit,1,0
1011,8, T_Scon, T_Scon_UGLG,304.4, incorrect,2,1
1012,8, T_Scon, T_Scon_UGLG,291.9, hit,1,0
1013,8, T_Scon, T_Scon_UGLG,291.2, hit,1,0
1014,8, T_Sinc, T_Sinc_URRR,282.7, incorrect,1,1
1015,8, T_Sinc, T_Sinc_URRR,302.2, hit,2,0
1016,8, T_Scon, T_Scon_UGLG,393.6, hit,1,0
1017,8, T_Scon, T_Scon_UGLG,281, hit,1,0
1018,8, T_Scon, T_Scon_DRRR,360.5, hit,2,0
1019,8, T_Scon, T_Scon_UGLG,323.9, hit,1,0
1020,8, T_Sinc, T_Sinc_DGLG,375.3, hit,1,0
1021,8, T_Scon, T_Scon_UGLG,314.8, hit,1,0
1022,8, T_Scon, T_Scon_DRRR,390.3, hit,2,0
1023,8, T_Scon, T_Scon_UGLG,417.6, hit,1,0
1024,8, T_Sinc, T_Sinc_DGLG,341.1, hit,1,0
1025,8, T_Scon, T_Scon_UGLG,332.5, hit,1,0
1026,8, T_Scon, T_Scon_DRRR,452, hit,2,0
1027,8, T_Scon, T_Scon_DRRR,539.4, hit,2,0
1028,8, T_Sinc, T_Sinc_DGLG,418.9, hit,1,0
1029,8, T_Scon, T_Scon_UGLG,358.3, hit,1,0
1030,8, T_Scon, T_Scon_DRRR,573.7, hit,2,0
1031,8, T_Scon, T_Scon_DRRR,257.2, hit,2,0
1032,8, T_Sinc, T_Sinc_DGLG,432.6, hit,1,0
1033,8, T_Scon, T_Scon_UGLG,356, incorrect,2,1
1034,8, T_Scon, T_Scon_DRRR,367.5, incorrect,1,1
1035,8, T_Scon, T_Scon_DRRR,446.9, hit,2,0
1036,8, T_Scon, T_Scon_UGLG,522.3, hit,1,0
1037,8, T_Scon, T_Scon_DRRR,577.8, hit,2,0
1038,8, T_Scon, T_Scon_UGLG,393.2, hit,1,0
1039,8, T_Scon, T_Scon_DRRR,364.7, hit,2,0
1040,8, T_Sinc, T_Sinc_URRR,568.1, hit,2,0
1041,8, T_Scon, T_Scon_UGLG,471.5, hit,1,0
1042,8, T_Scon, T_Scon_UGLG,383, hit,1,0
1043,8, T_Scon, T_Scon_UGLG,362.4, hit,1,0
1044,8, T_Scon, T_Scon_UGLG,377.8, hit,1,0
1045,8, T_Scon, T_Scon_UGLG,313, hit,1,0
1046,8, T_Scon, T_Scon_DRRR,388.4, hit,2,0
1047,8, T_Scon, T_Scon_UGLG,291.9, hit,1,0
1048,8, T_Scon, T_Scon_DRRR,403.3, hit,2,0
1049,8, T_Sinc, T_Sinc_URRR,414.2, hit,2,0
1050,8, T_Sinc, T_Sinc_DGLG,305.6, hit,1,0
1051,8, T_Scon, T_Scon_DRRR,301.1, hit,2,0
1052,8, T_Scon, T_Scon_UGLG,280.5, hit,1,0
1053,8, T_Scon, T_Scon_DRRR,407.9, hit,2,0
1054,8, T_Scon, T_Scon_UGLG,235.4, hit,1,0
1055,8, T_Scon, T_Scon_UGLG,334.9, hit,1,0
1056,8, T_Sinc, T_Sinc_DGLG,554.2, incorrect,2,1
1057,8, T_Scon, T_Scon_DRRR,433.7, hit,2,0
1058,8, T_Scon, T_Scon_UGLG,597.2, hit,1,0
1059,8, T_Scon, T_Scon_DRRR,464.6, hit,2,0
1060,8, T_Scon, T_Scon_UGLG,308, hit,1,0
1061,8, T_Scon, T_Scon_DRRR,343.4, hit,2,0
1062,8, T_Scon, T_Scon_DRRR,338.9, hit,2,0
1063,8, T_Scon, T_Scon_DRRR,342.3, hit,2,0
1064,8, T_Scon, T_Scon_UGLG,313.8, hit,1,0
1065,8, T_Scon, T_Scon_DRRR,465.2, hit,2,0
1066,8, T_Scon, T_Scon_DRRR,444.6, hit,2,0
1067,8, T_Scon, T_Scon_DRRR,336.1, hit,2,0
1068,8, T_Sinc, T_Sinc_DGLG,447.5, hit,1,0
1069,8, T_Sinc, T_Sinc_DGLG,542.9, hit,1,0
1070,8, T_Scon, T_Scon_DRRR,398.4, hit,2,0
1071,8, T_Sinc, T_Sinc_DGLG,421.8, hit,1,0
1072,8, T_Sinc, T_Sinc_URRR,445.2, hit,2,0
1073,8, T_Scon, T_Scon_UGLG,388.7, hit,1,0
1074,8, T_Scon, T_Scon_UGLG,376.1, hit,1,0
1075,8, T_Sinc, T_Sinc_URRR,499.6, hit,2,0
1076,8, T_Sinc, T_Sinc_URRR,471, hit,2,0
1077,8, T_Scon, T_Scon_DRRR,398.5, hit,2,0
1078,8, T_Sinc, T_Sinc_URRR,373.9, hit,2,0
1079,8, T_Scon, T_Scon_UGLG,365.3, hit,1,0
1080,8, T_Sinc, T_Sinc_DGLG,396.5, hit,1,0
1081,8, T_Sinc, T_Sinc_URRR,400, hit,2,0
1082,8, T_Sinc, T_Sinc_URRR,355.3, hit,2,0
1083,8, T_Scon, T_Scon_DRRR,358.8, hit,2,0
1084,8, T_Sinc, T_Sinc_DGLG,418.3, hit,1,0
1085,8, T_Scon, T_Scon_DRRR,405.7, hit,2,0
1086,8, T_Scon, T_Scon_UGLG,393.1, hit,1,0
1087,8, T_Scon, T_Scon_UGLG,404.6, hit,1,0
1088,8, T_Scon, T_Scon_UGLG,312, hit,1,0
1089,8, T_Sinc, T_Sinc_URRR,411.4, hit,2,0
1090,8, T_Scon, T_Scon_DRRR,382.8, hit,2,0
1091,8, T_Scon, T_Scon_DRRR,514.3, hit,2,0
1092,8, T_Scon, T_Scon_UGLG,341.8, hit,1,0
1093,8, T_Scon, T_Scon_UGLG,353.2, hit,1,0
1094,8, T_Scon, T_Scon_DRRR,420.6, hit,2,0
1095,8, T_Scon, T_Scon_DRRR,380, hit,2,0
1096,8, T_Scon, T_Scon_UGLG,351.5, hit,1,0
1097,8, T_Scon, T_Scon_DRRR,378.9, hit,2,0
1098,8, T_Sinc, T_Sinc_URRR,462.4, hit,2,0
1099,8, T_Scon, T_Scon_UGLG,377.8, hit,1,0
1100,8, T_Scon, T_Scon_UGLG,469.2, hit,1,0
1101,8, T_Scon, T_Scon_DRRR,480.7, hit,2,0
1102,8, T_Scon, T_Scon_DRRR,380, hit,2,0
1103,8, T_Sinc, T_Sinc_URRR,983.5, incorrect,1,1
1104,8, T_Scon, T_Scon_UGLG,399, hit,1,0
1105,8, T_Sinc, T_Sinc_URRR,474.4, hit,2,0
1106,8, T_Scon, T_Scon_DRRR,473.8, hit,2,0
1107,8, T_Scon, T_Scon_UGLG,453.3, hit,1,0
1108,8, T_Scon, T_Scon_UGLG,292.7, hit,1,0
1109,8, T_Scon, T_Scon_UGLG,252.1, hit,1,0
1110,8, T_Scon, T_Scon_DRRR,319.6, hit,2,0
1111,8, T_Scon, T_Scon_DRRR,387, hit,2,0
1112,8, T_Sinc, T_Sinc_DGLG,482.4, hit,1,0
1113,8, T_Scon, T_Scon_DRRR,597.9, hit,2,0
1114,8, T_Scon, T_Scon_UGLG,369.4, hit,1,0
1115,8, T_Sinc, T_Sinc_URRR,396.8, hit,2,0
1116,8, T_Sinc, T_Sinc_DGLG,460, hit,1,0
1117,8, T_Scon, T_Scon_UGLG,375.4, hit,1,0
1118,8, T_Scon, T_Scon_DRRR,426.8, hit,2,0
1119,8, T_Scon, T_Scon_DRRR,246.2, hit,2,0
1120,8, T_Scon, T_Scon_DRRR,317.7, hit,2,0
1121,8, T_Sinc, T_Sinc_URRR,433.2, hit,2,0
1122,8, T_Scon, T_Scon_UGLG,372.5, hit,1,0
1123,8, T_Sinc, T_Sinc_DGLG,344, incorrect,2,1
1124,8, T_Scon, T_Scon_DRRR,307.4, hit,2,0
1125,8, T_Sinc, T_Sinc_URRR,558.9, hit,2,0
1126,8, T_Scon, T_Scon_DRRR,346.3, hit,2,0
1127,8, T_Scon, T_Scon_DRRR,405.8, hit,2,0
1128,8, T_Scon, T_Scon_DRRR,305.2, hit,2,0
1129,8, T_Sinc, T_Sinc_DGLG,364.6, hit,1,0
1130,8, T_Scon, T_Scon_DRRR,328.1, incorrect,1,1
1131,8, T_Scon, T_Scon_DRRR,275.5, hit,2,0
1132,8, T_Scon, T_Scon_UGLG,502.9, hit,1,0
1133,8, T_Scon, T_Scon_DRRR,382.4, hit,2,0
1134,8, T_Scon, T_Scon_DRRR,417.8, hit,2,0
1135,8, T_Scon, T_Scon_UGLG,405.2, hit,1,0
1136,8, T_Scon, T_Scon_UGLG,372.7, hit,1,0
1137,8, T_Scon, T_Scon_UGLG,396.1, hit,1,0
1138,8, T_Scon, T_Scon_UGLG,407.6, hit,1,0
1139,8, T_Scon, T_Scon_DRRR,351, hit,2,0
1140,8, T_Sinc, T_Sinc_DGLG,534.4, hit,1,0
1141,8, T_Sinc, T_Sinc_URRR,489.9, hit,2,0
1142,8, T_Scon, T_Scon_UGLG,525.3, hit,1,0
1143,8, T_Scon, T_Scon_UGLG,412.8, hit,1,0
1144,8, T_Sinc, T_Sinc_DGLG,452.2, hit,1,0
1145,8, T_Scon, T_Scon_UGLG,343.6, hit,1,0
1146,8, T_Scon, T_Scon_UGLG,327.1, hit,1,0
1147,8, T_Scon, T_Scon_UGLG,294.5, hit,1,0
1148,8, T_Scon, T_Scon_DRRR,618, hit,2,0
1149,8, T_Sinc, T_Sinc_DGLG,389.4, hit,1,0
1150,8, T_Scon, T_Scon_DRRR,360.8, hit,2,0
1151,8, T_Scon, T_Scon_DRRR,412.3, hit,2,0
1152,9, T_Scon, T_Scon_DRRR,520.4, hit,2,0
1153,9, T_Scon, T_Scon_DRRR,271.8, hit,2,0
1154,9, T_Sinc, T_Sinc_URRR,327.3, hit,2,0
1155,9, T_Scon, T_Scon_DRRR,290.7, hit,2,0
1156,9, T_Scon, T_Scon_UGLG,438.2, hit,1,0
1157,9, T_Scon, T_Scon_DRRR,417.6, incorrect,1,1
1158,9, T_Scon, T_Scon_UGLG,333, hit,1,0
1159,9, T_Scon, T_Scon_UGLG,368.4, hit,1,0
1160,9, T_Scon, T_Scon_DRRR,399.9, hit,2,0
1161,9, T_Scon, T_Scon_UGLG,375.3, hit,1,0
1162,9, T_Scon, T_Scon_DRRR,354.8, hit,2,0
1163,9, T_Scon, T_Scon_DRRR,262.2, hit,2,0
1164,9, T_Scon, T_Scon_UGLG,357.6, hit,1,0
1165,9, T_Scon, T_Scon_DRRR,549.1, hit,2,0
1166,9, T_Sinc, T_Sinc_DGLG,424.6, hit,1,0
1167,9, T_Scon, T_Scon_UGLG,411.9, hit,1,0
1168,9, T_Sinc, T_Sinc_DGLG,415.4, hit,1,0
1169,9, T_Scon, T_Scon_DRRR,490.8, hit,2,0
1170,9, T_Scon, T_Scon_DRRR,294.2, incorrect,1,1
1171,9, T_Scon, T_Scon_DRRR,305.7, hit,2,0
1172,9, T_Sinc, T_Sinc_URRR,337.1, incorrect,1,1
1173,9, T_Scon, T_Scon_UGLG,372.6, hit,1,0
1174,9, T_Scon, T_Scon_DRRR,288, hit,2,0
1175,9, T_Scon, T_Scon_DRRR,87.5, hit,2,3
1176,9, T_Sinc, T_Sinc_URRR,270.9, hit,2,0
1177,9, T_Scon, T_Scon_UGLG,370.3, hit,1,0
1178,9, T_Sinc, T_Sinc_URRR,349.8, hit,2,0
1179,9, T_Scon, T_Scon_UGLG,441.2, hit,1,0
1180,9, T_Scon, T_Scon_DRRR,556.6, hit,2,0
1181,9, T_Sinc, T_Sinc_URRR,356.1, hit,2,0
1182,9, T_Scon, T_Scon_UGLG,599.5, hit,1,0
1183,9, T_Sinc, T_Sinc_DGLG,538.9, hit,1,0
1184,9, T_Scon, T_Scon_UGLG,414.4, hit,1,0
1185,9, T_Scon, T_Scon_UGLG,265.9, hit,1,0
1186,9, T_Scon, T_Scon_UGLG,277.2, hit,1,0
1187,9, T_Sinc, T_Sinc_URRR,444.7, hit,2,0
1188,9, T_Scon, T_Scon_DRRR,575.9, hit,2,0
1189,9, T_Scon, T_Scon_DRRR,259.3, hit,2,0
1190,9, T_Sinc, T_Sinc_DGLG,278.8, incorrect,2,1
1191,9, T_Scon, T_Scon_DRRR,466.2, hit,2,0
1192,9, T_Scon, T_Scon_UGLG,397.6, hit,1,0
1193,9, T_Sinc, T_Sinc_URRR,677.1, hit,2,0
1194,9, T_Scon, T_Scon_UGLG,664.5, hit,1,2
1195,9, T_Scon, T_Scon_DRRR,379.9, hit,2,0
1196,9, T_Scon, T_Scon_DRRR,455.4, hit,2,0
1197,9, T_Sinc, T_Sinc_DGLG,442.8, hit,1,0
1198,9, T_Scon, T_Scon_DRRR,418.3, hit,2,0
1199,9, T_Scon, T_Scon_UGLG,377.7, hit,1,0
1200,9, T_Sinc, T_Sinc_DGLG,321.1, incorrect,2,1
1201,9, T_Scon, T_Scon_UGLG,396.6, hit,1,0
1202,9, T_Scon, T_Scon_DRRR,444, hit,2,0
1203,9, T_Scon, T_Scon_UGLG,415.4, hit,1,0
1204,9, T_Scon, T_Scon_DRRR,434.9, hit,2,0
1205,9, T_Scon, T_Scon_DRRR,382.3, hit,2,0
1206,9, T_Scon, T_Scon_DRRR,325.8, hit,2,0
1207,9, T_Sinc, T_Sinc_DGLG,481.2, hit,1,0
1208,9, T_Sinc, T_Sinc_URRR,504.7, hit,2,0
1209,9, T_Scon, T_Scon_UGLG,420.1, hit,1,0
1210,9, T_Scon, T_Scon_DRRR,375.5, hit,2,0
1211,9, T_Scon, T_Scon_DRRR,295, hit,2,0
1212,9, T_Scon, T_Scon_UGLG,394.4, hit,1,0
1213,9, T_Scon, T_Scon_UGLG,433.8, hit,1,0
1214,9, T_Sinc, T_Sinc_URRR,389.3, hit,2,0
1215,9, T_Scon, T_Scon_UGLG,464.8, hit,1,0
1216,9, T_Scon, T_Scon_UGLG,372.1, hit,1,0
1217,9, T_Scon, T_Scon_DRRR,471.6, hit,2,0
1218,9, T_Scon, T_Scon_DRRR,587.1, hit,2,0
1219,9, T_Scon, T_Scon_DRRR,358.4, hit,2,0
1220,9, T_Scon, T_Scon_UGLG,369.9, hit,1,0
1221,9, T_Scon, T_Scon_DRRR,381.4, hit,2,0
1222,9, T_Scon, T_Scon_UGLG,544.7, hit,1,0
1223,9, T_Sinc, T_Sinc_DGLG,636.2, hit,1,0
1224,9, T_Scon, T_Scon_UGLG,471.4, incorrect,2,1
1225,9, T_Sinc, T_Sinc_DGLG,410.8, hit,1,0
1226,9, T_Scon, T_Scon_UGLG,318.3, hit,1,0
1227,9, T_Scon, T_Scon_DRRR,489.7, hit,2,0
1228,9, T_Sinc, T_Sinc_URRR,381.1, hit,2,0
1229,9, T_Scon, T_Scon_DRRR,408.6, hit,2,0
1230,9, T_Scon, T_Scon_DRRR,380, hit,2,0
1231,9, T_Scon, T_Scon_DRRR,591.4, hit,2,0
1232,9, T_Sinc, T_Sinc_URRR,354.8, hit,2,0
1233,9, T_Sinc, T_Sinc_DGLG,358.3, hit,1,0
1234,9, T_Scon, T_Scon_UGLG,321.8, hit,1,0
1235,9, T_Sinc, T_Sinc_URRR,309.1, incorrect,1,1
1236,9, T_Scon, T_Scon_UGLG,360.6, incorrect,2,1
1237,9, T_Scon, T_Scon_DRRR,428.1, hit,2,0
1238,9, T_Scon, T_Scon_DRRR,395.5, hit,2,0
1239,9, T_Scon, T_Scon_UGLG,334.9, hit,1,0
1240,9, T_Scon, T_Scon_UGLG,362.4, hit,1,0
1241,9, T_Sinc, T_Sinc_URRR,413.9, hit,2,0
1242,9, T_Sinc, T_Sinc_DGLG,485.2, hit,1,0
1243,9, T_Sinc, T_Sinc_DGLG,380.7, hit,1,0
1244,9, T_Scon, T_Scon_UGLG,352.2, hit,1,0
1245,9, T_Scon, T_Scon_UGLG,623.5, hit,1,0
1246,9, T_Scon, T_Scon_UGLG,339, hit,1,0
1247,9, T_Sinc, T_Sinc_URRR,450.5, hit,2,0
1248,9, T_Scon, T_Scon_UGLG,401.9, hit,1,0
1249,9, T_Scon, T_Scon_UGLG,273.3, hit,1,0
1250,9, T_Scon, T_Scon_DRRR,516.7, hit,2,0
1251,9, T_Scon, T_Scon_DRRR,436.2, hit,2,0
1252,9, T_Sinc, T_Sinc_DGLG,787.6, hit,1,2
1253,9, T_Sinc, T_Sinc_URRR,863.1, hit,2,2
1254,9, T_Scon, T_Scon_UGLG,554.5, hit,1,0
1255,9, T_Sinc, T_Sinc_DGLG,521.9, hit,1,0
1256,9, T_Scon, T_Scon_UGLG,357.3, hit,1,0
1257,9, T_Scon, T_Scon_UGLG,288.8, hit,1,0
1258,9, T_Scon, T_Scon_DRRR,436.3, hit,2,0
1259,9, T_Sinc, T_Sinc_DGLG,511.6, hit,1,0
1260,9, T_Scon, T_Scon_UGLG,406.9, hit,1,0
1261,9, T_Scon, T_Scon_DRRR,374.3, hit,2,0
1262,9, T_Sinc, T_Sinc_URRR,305.7, hit,2,0
1263,9, T_Scon, T_Scon_UGLG,381.1, hit,1,0
1264,9, T_Scon, T_Scon_UGLG,312.6, hit,1,0
1265,9, T_Scon, T_Scon_DRRR,356, hit,2,0
1266,9, T_Sinc, T_Sinc_DGLG,399.4, hit,1,0
1267,9, T_Scon, T_Scon_UGLG,414.9, hit,1,0
1268,9, T_Scon, T_Scon_UGLG,294.4, hit,1,0
1269,9, T_Scon, T_Scon_UGLG,309.7, hit,1,0
1270,9, T_Scon, T_Scon_DRRR,413.2, hit,2,0
1271,9, T_Sinc, T_Sinc_URRR,364.7, incorrect,1,1
1272,9, T_Sinc, T_Sinc_DGLG,404, hit,1,0
1273,9, T_Scon, T_Scon_UGLG,335.5, hit,1,0
1274,9, T_Scon, T_Scon_UGLG,295, hit,1,0
1275,9, T_Scon, T_Scon_DRRR,410.4, hit,2,0
1276,9, T_Scon, T_Scon_UGLG,405.8, hit,1,0
1277,9, T_Scon, T_Scon_DRRR,277.3, hit,2,0
1278,9, T_Sinc, T_Sinc_URRR,400.8, hit,2,0
1279,9, T_Scon, T_Scon_UGLG,368.1, hit,1,0
1280,9, T_Scon, T_Scon_DRRR,335.6, hit,2,0
1281,9, T_Scon, T_Scon_DRRR,355.1, hit,2,0
1282,9, T_Scon, T_Scon_UGLG,446.4, hit,1,0
1283,9, T_Scon, T_Scon_DRRR,401.9, hit,2,0
1284,9, T_Scon, T_Scon_UGLG,389.4, hit,1,0
1285,9, T_Scon, T_Scon_DRRR,460.7, hit,2,0
1286,9, T_Scon, T_Scon_DRRR,468.2, hit,2,0
1287,9, T_Scon, T_Scon_DRRR,335.7, hit,2,0
1288,9, T_Scon, T_Scon_DRRR,403.1, hit,2,0
1289,9, T_Scon, T_Scon_DRRR,358.5, hit,2,0
1290,9, T_Scon, T_Scon_DRRR,370, hit,2,0
1291,9, T_Scon, T_Scon_UGLG,453.4, hit,1,0
1292,9, T_Sinc, T_Sinc_DGLG,268.8, hit,1,0
1293,9, T_Scon, T_Scon_UGLG,368.3, hit,1,0
1294,9, T_Scon, T_Scon_DRRR,487.7, hit,2,0
1295,9, T_Scon, T_Scon_UGLG,383.2, hit,1,0
