trial_index, block, condition, full_condition_code, RT, response_type, response_key, error_outlier
1, 1, T_Sinc, T_Sinc_DGLG, 806.7, hit, 1, 2
2, 1, T_Scon, T_Scon_UGLG, 606.1, hit, 1, 0
3, 1, T_Scon, T_Scon_DRRR, 433.5, hit, 2, 0
4, 1, T_Scon, T_Scon_UGLG, 405.0, hit, 1, 0
5, 1, T_Scon, T_Scon_UGLG, 372.4, hit, 1, 0
6, 1, T_Sinc, T_Sinc_URRR, 519.9, hit, 2, 0
7, 1, T_Scon, T_Scon_DRRR, 855.3, hit, 2, 2
8, 1, T_Scon, T_Scon_DRRR, 446.8, hit, 2, 0
9, 1, T_Sinc, T_Sinc_URRR, 446.2, hit, 2, 0
10, 1, T_Sinc, T_Sinc_DGLG, 965.7, hit, 1, 2
11, 1, T_Scon, T_Scon_UGLG, 513.1, hit, 1, 0
12, 1, T_Sinc, T_Sinc_URRR, 540.5, hit, 2, 0
13, 1, T_Scon, T_Scon_DRRR, 648.0, hit, 2, 0
14, 1, T_Sinc, T_Sinc_DGLG, 371.4, hit, 1, 0
15, 1, T_Scon, T_Scon_DRRR, 434.9, hit, 2, 0
16, 1, T_Scon, T_Scon_UGLG, 630.2, hit, 1, 0
17, 1, T_Scon, T_Scon_UGLG, 365.7, hit, 1, 0
18, 1, T_Scon, T_Scon_UGLG, 697.1, hit, 1, 2
19, 1, T_Sinc, T_Sinc_DGLG, 432.6, hit, 1, 0
20, 1, T_Scon, T_Scon_UGLG, 400.0, hit, 1, 0
21, 1, T_Scon, T_Scon_UGLG, 299.5, hit, 1, 0
22, 1, T_Scon, T_Scon_DRRR, 398.9, hit, 2, 0
23, 1, T_Scon, T_Scon_DRRR, 442.4, hit, 2, 0
24, 1, T_Sinc, T_Sinc_DGLG, 421.8, incorrect, 2, 1
25, 1, T_Scon, T_Scon_DRRR, 1249.2, incorrect, 1, 1
26, 1, T_Sinc, T_Sinc_DGLG, 824.6, hit, 1, 2
27, 1, T_Scon, T_Scon_DRRR, 672.1, hit, 2, 0
28, 1, T_Scon, T_Scon_UGLG, 611.5, hit, 1, 0
29, 1, T_Scon, T_Scon_DRRR, 726.9, hit, 2, 2
30, 1, T_Scon, T_Scon_DRRR, 786.4, hit, 2, 2
31, 1, T_Scon, T_Scon_DRRR, 381.8, hit, 2, 0
32, 1, T_Scon, T_Scon_UGLG, 373.3, hit, 1, 0
33, 1, T_Scon, T_Scon_DRRR, 488.7, hit, 2, 0
34, 1, T_Sinc, T_Sinc_DGLG, 548.2, hit, 1, 0
35, 1, T_Scon, T_Scon_UGLG, 459.5, hit, 1, 0
36, 1, T_Scon, T_Scon_UGLG, 463.0, hit, 1, 0
37, 1, T_Scon, T_Scon_DRRR, 990.2, hit, 2, 2
38, 1, T_Scon, T_Scon_DRRR, 421.6, hit, 2, 0
39, 1, T_Scon, T_Scon_UGLG, 409.1, hit, 1, 0
40, 1, T_Scon, T_Scon_UGLG, 360.5, hit, 1, 0
41, 1, T_Scon, T_Scon_UGLG, 323.9, hit, 1, 0
42, 1, T_Sinc, T_Sinc_DGLG, 663.3, hit, 1, 0
43, 1, T_Scon, T_Scon_DRRR, 554.8, hit, 2, 0
44, 1, T_Sinc, T_Sinc_URRR, 394.2, hit, 2, 0
45, 1, T_Scon, T_Scon_UGLG, 401.7, hit, 1, 0
46, 1, T_Sinc, T_Sinc_URRR, 537.1, hit, 2, 0
47, 1, T_Sinc, T_Sinc_URRR, 852.6, hit, 2, 2
48, 1, T_Scon, T_Scon_UGLG, 468.1, hit, 1, 0
49, 1, T_Scon, T_Scon_UGLG, 479.5, hit, 1, 0
50, 1, T_Sinc, T_Sinc_URRR, 602.8, hit, 2, 0
51, 1, T_Scon, T_Scon_DRRR, 566.3, hit, 2, 0
52, 1, T_Scon, T_Scon_DRRR, 433.7, hit, 2, 0
53, 1, T_Scon, T_Scon_DRRR, 341.2, hit, 2, 0
54, 1, T_Scon, T_Scon_UGLG, 344.6, hit, 1, 0
55, 1, T_Scon, T_Scon_DRRR, 716.1, hit, 2, 2
56, 1, T_Scon, T_Scon_DRRR, 439.5, hit, 2, 0
57, 1, T_Sinc, T_Sinc_URRR, 367.0, hit, 2, 0
58, 1, T_Sinc, T_Sinc_DGLG, 458.3, hit, 1, 0
59, 1, T_Sinc, T_Sinc_URRR, 429.7, hit, 2, 0
60, 1, T_Sinc, T_Sinc_DGLG, 425.2, hit, 1, 0
61, 1, T_Scon, T_Scon_DRRR, 564.6, hit, 2, 0
62, 1, T_Scon, T_Scon_UGLG, 340.1, hit, 1, 0
63, 1, T_Scon, T_Scon_DRRR, 387.5, hit, 2, 0
64, 1, T_Scon, T_Scon_DRRR, 759.0, hit, 2, 2
65, 1, T_Scon, T_Scon_UGLG, 506.4, hit, 1, 0
66, 1, T_Scon, T_Scon_DRRR, 473.9, hit, 2, 0
67, 1, T_Scon, T_Scon_UGLG, 605.2, hit, 1, 0
68, 1, T_Sinc, T_Sinc_URRR, 464.7, hit, 2, 0
69, 1, T_Sinc, T_Sinc_DGLG, 732.1, hit, 1, 0
70, 1, T_Scon, T_Scon_UGLG, 479.6, hit, 1, 0
71, 1, T_Scon, T_Scon_UGLG, 351.0, hit, 1, 0
72, 1, T_Sinc, T_Sinc_URRR, 410.5, hit, 2, 0
73, 1, T_Scon, T_Scon_DRRR, 705.6, hit, 2, 2
74, 1, T_Scon, T_Scon_DRRR, 421.0, hit, 2, 0
75, 1, T_Sinc, T_Sinc_DGLG, 328.5, hit, 1, 0
76, 1, T_Scon, T_Scon_UGLG, 427.9, hit, 1, 0
77, 1, T_Scon, T_Scon_DRRR, 607.4, hit, 2, 0
78, 1, T_Scon, T_Scon_DRRR, 322.8, hit, 2, 0
79, 1, T_Scon, T_Scon_DRRR, 374.3, hit, 2, 0
80, 1, T_Scon, T_Scon_UGLG, 373.7, hit, 1, 0
81, 1, T_Sinc, T_Sinc_URRR, 593.1, hit, 2, 0
82, 1, T_Scon, T_Scon_UGLG, 496.6, hit, 1, 0
83, 1, T_Scon, T_Scon_DRRR, 480.0, hit, 2, 0
84, 1, T_Scon, T_Scon_DRRR, 435.4, hit, 2, 0
85, 1, T_Scon, T_Scon_DRRR, 374.9, hit, 2, 0
86, 1, T_Scon, T_Scon_UGLG, 358.3, hit, 1, 0
87, 1, T_Scon, T_Scon_DRRR, 389.8, hit, 2, 0
88, 1, T_Scon, T_Scon_DRRR, 393.2, hit, 2, 0
89, 1, T_Scon, T_Scon_DRRR, 324.6, hit, 2, 0
90, 1, T_Scon, T_Scon_UGLG, 376.0, hit, 1, 0
91, 1, T_Scon, T_Scon_DRRR, 443.5, hit, 2, 0
92, 1, T_Scon, T_Scon_UGLG, 326.9, hit, 1, 0
93, 1, T_Scon, T_Scon_DRRR, 306.4, hit, 2, 0
94, 1, T_Sinc, T_Sinc_DGLG, 517.8, hit, 1, 0
95, 1, T_Scon, T_Scon_DRRR, 389.3, hit, 2, 0
96, 1, T_Scon, T_Scon_UGLG, 364.7, hit, 1, 0
97, 1, T_Scon, T_Scon_UGLG, 416.1, hit, 1, 0
98, 1, T_Scon, T_Scon_UGLG, 307.6, hit, 1, 0
99, 1, T_Scon, T_Scon_UGLG, 283.0, hit, 1, 0
100, 1, T_Scon, T_Scon_UGLG, 262.5, hit, 1, 0
101, 1, T_Scon, T_Scon_DRRR, 333.8, hit, 2, 0
102, 1, T_Scon, T_Scon_DRRR, 301.3, hit, 2, 0
103, 1, T_Scon, T_Scon_UGLG, 324.7, hit, 1, 0
104, 1, T_Scon, T_Scon_DRRR, 404.2, hit, 2, 0
105, 1, T_Scon, T_Scon_UGLG, 491.6, incorrect, 2, 1
106, 1, T_Scon, T_Scon_DRRR, 615.1, hit, 2, 0
107, 1, T_Scon, T_Scon_DRRR, 362.5, hit, 2, 0
108, 1, T_Scon, T_Scon_UGLG, 330.0, hit, 1, 0
109, 1, T_Sinc, T_Sinc_DGLG, 517.1, hit, 1, 0
110, 1, T_Scon, T_Scon_UGLG, 384.5, hit, 1, 0
111, 1, T_Scon, T_Scon_DRRR, 372.0, hit, 2, 0
112, 1, T_Scon, T_Scon_DRRR, 403.5, hit, 2, 0
113, 1, T_Sinc, T_Sinc_URRR, 410.9, hit, 2, 0
114, 1, T_Scon, T_Scon_UGLG, 350.3, hit, 1, 0
115, 1, T_Sinc, T_Sinc_DGLG, 457.8, hit, 1, 0
116, 1, T_Scon, T_Scon_UGLG, 333.2, hit, 1, 0
117, 1, T_Scon, T_Scon_DRRR, 428.6, hit, 2, 0
118, 1, T_Scon, T_Scon_DRRR, 496.0, hit, 2, 0
119, 1, T_Scon, T_Scon_UGLG, 351.5, hit, 1, 0
120, 1, T_Sinc, T_Sinc_URRR, 1162.9, hit, 2, 2
121, 1, T_Sinc, T_Sinc_URRR, 318.4, hit, 2, 0
122, 1, T_Scon, T_Scon_UGLG, 489.8, hit, 1, 0
123, 1, T_Scon, T_Scon_UGLG, 509.2, hit, 1, 0
124, 1, T_Scon, T_Scon_UGLG, 412.7, hit, 1, 0
125, 1, T_Sinc, T_Sinc_DGLG, 448.1, hit, 1, 0
126, 1, T_Scon, T_Scon_DRRR, 459.6, hit, 2, 0
127, 1, T_Scon, T_Scon_UGLG, 551.0, hit, 1, 0
128, 1, T_Sinc, T_Sinc_URRR, 406.4, hit, 2, 0
129, 1, T_Scon, T_Scon_DRRR, 433.8, hit, 2, 0
130, 1, T_Scon, T_Scon_UGLG, 421.3, hit, 1, 0
131, 1, T_Scon, T_Scon_UGLG, 440.7, hit, 1, 0
132, 1, T_Scon, T_Scon_UGLG, 380.2, hit, 1, 0
133, 1, T_Sinc, T_Sinc_DGLG, 435.6, hit, 1, 0
134, 1, T_Sinc, T_Sinc_DGLG, 371.1, hit, 1, 0
135, 1, T_Sinc, T_Sinc_URRR, 478.5, hit, 2, 0
136, 1, T_Scon, T_Scon_DRRR, 721.9, hit, 2, 2
137, 1, T_Scon, T_Scon_DRRR, 357.4, hit, 2, 0
138, 1, T_Scon, T_Scon_DRRR, 312.9, hit, 2, 0
139, 1, T_Sinc, T_Sinc_URRR, 364.3, hit, 2, 0
140, 1, T_Scon, T_Scon_UGLG, 407.7, hit, 1, 0
141, 1, T_Scon, T_Scon_UGLG, 347.1, hit, 1, 0
142, 1, T_Scon, T_Scon_DRRR, 374.5, hit, 2, 0
143, 1, T_Scon, T_Scon_UGLG, 274.0, hit, 1, 0
144, 1, T_Scon, T_Scon_UGLG, 373.4, hit, 1, 0
145, 2, T_Sinc, T_Sinc_DGLG, 525.4, hit, 1, 0
146, 2, T_Scon, T_Scon_UGLG, 456.8, hit, 1, 0
147, 2, T_Sinc, T_Sinc_URRR, 500.3, hit, 2, 0
148, 2, T_Sinc, T_Sinc_URRR, 431.7, hit, 2, 0
149, 2, T_Scon, T_Scon_DRRR, 355.2, hit, 2, 0
150, 2, T_Scon, T_Scon_UGLG, 374.5, hit, 1, 0
151, 2, T_Scon, T_Scon_DRRR, 701.9, hit, 2, 2
152, 2, T_Sinc, T_Sinc_DGLG, 513.4, hit, 1, 0
153, 2, T_Sinc, T_Sinc_DGLG, 296.9, hit, 1, 0
154, 2, T_Scon, T_Scon_UGLG, 300.3, hit, 1, 0
155, 2, T_Scon, T_Scon_DRRR, 415.7, hit, 2, 0
156, 2, T_Scon, T_Scon_DRRR, 727.2, hit, 2, 2
157, 2, T_Scon, T_Scon_UGLG, 450.6, hit, 1, 0
158, 2, T_Sinc, T_Sinc_URRR, 382.1, hit, 2, 0
159, 2, T_Scon, T_Scon_UGLG, 385.5, hit, 1, 0
160, 2, T_Scon, T_Scon_DRRR, 533.0, hit, 2, 0
161, 2, T_Scon, T_Scon_UGLG, 368.3, hit, 1, 0
162, 2, T_Scon, T_Scon_UGLG, 315.8, hit, 1, 0
163, 2, T_Sinc, T_Sinc_DGLG, 315.2, hit, 1, 0
164, 2, T_Scon, T_Scon_DRRR, 366.7, hit, 2, 0
165, 2, T_Scon, T_Scon_DRRR, 410.1, hit, 2, 0
166, 2, T_Scon, T_Scon_DRRR, 313.6, hit, 2, 0
167, 2, T_Scon, T_Scon_UGLG, 317.0, hit, 1, 0
168, 2, T_Scon, T_Scon_UGLG, 296.5, hit, 1, 0
169, 2, T_Scon, T_Scon_UGLG, 291.9, hit, 1, 0
170, 2, T_Scon, T_Scon_DRRR, 399.4, hit, 2, 0
171, 2, T_Scon, T_Scon_UGLG, 458.8, hit, 1, 0
172, 2, T_Scon, T_Scon_DRRR, 294.2, hit, 2, 0
173, 2, T_Scon, T_Scon_UGLG, 337.7, hit, 1, 0
174, 2, T_Sinc, T_Sinc_URRR, 337.1, incorrect, 1, 1
175, 2, T_Scon, T_Scon_DRRR, 476.5, hit, 2, 0
176, 2, T_Sinc, T_Sinc_DGLG, 467.9, hit, 1, 0
177, 2, T_Sinc, T_Sinc_URRR, 339.4, hit, 2, 0
178, 2, T_Sinc, T_Sinc_DGLG, 322.8, hit, 1, 0
179, 2, T_Scon, T_Scon_UGLG, 402.3, hit, 1, 0
180, 2, T_Sinc, T_Sinc_URRR, 377.7, hit, 2, 0
181, 2, T_Sinc, T_Sinc_DGLG, 468.9, hit, 1, 0
182, 2, T_Scon, T_Scon_UGLG, 332.3, hit, 1, 0
183, 2, T_Scon, T_Scon_DRRR, 403.8, hit, 2, 0
184, 2, T_Scon, T_Scon_DRRR, 371.2, hit, 2, 0
185, 2, T_Scon, T_Scon_UGLG, 326.6, hit, 1, 0
186, 2, T_Scon, T_Scon_UGLG, 314.0, hit, 1, 0
187, 2, T_Scon, T_Scon_UGLG, 297.5, hit, 1, 0
188, 2, T_Scon, T_Scon_DRRR, 341.0, hit, 2, 0
189, 2, T_Scon, T_Scon_DRRR, 496.3, hit, 2, 0
190, 2, T_Scon, T_Scon_UGLG, 315.8, hit, 1, 0
191, 2, T_Scon, T_Scon_UGLG, 315.2, hit, 1, 0
192, 2, T_Scon, T_Scon_DRRR, 394.6, hit, 2, 0
193, 2, T_Scon, T_Scon_UGLG, 298.1, hit, 1, 0
194, 2, T_Scon, T_Scon_DRRR, 481.5, hit, 2, 0
195, 2, T_Sinc, T_Sinc_URRR, 545.0, hit, 2, 0
196, 2, T_Sinc, T_Sinc_URRR, 512.4, hit, 2, 0
197, 2, T_Scon, T_Scon_DRRR, 531.9, hit, 2, 0
198, 2, T_Scon, T_Scon_UGLG, 335.4, hit, 1, 0
199, 2, T_Scon, T_Scon_UGLG, 326.8, hit, 1, 0
200, 2, T_Sinc, T_Sinc_DGLG, 346.2, hit, 1, 0
201, 2, T_Sinc, T_Sinc_DGLG, 325.6, hit, 1, 0
202, 2, T_Sinc, T_Sinc_URRR, 301.0, hit, 2, 0
203, 2, T_Scon, T_Scon_DRRR, 364.5, hit, 2, 0
204, 2, T_Scon, T_Scon_DRRR, 303.9, hit, 2, 0
205, 2, T_Scon, T_Scon_UGLG, 355.4, hit, 1, 0
206, 2, T_Scon, T_Scon_DRRR, 502.8, hit, 2, 0
207, 2, T_Scon, T_Scon_DRRR, 478.3, hit, 2, 0
208, 2, T_Scon, T_Scon_DRRR, 325.7, hit, 2, 0
209, 2, T_Scon, T_Scon_UGLG, 341.2, hit, 1, 0
210, 2, T_Scon, T_Scon_UGLG, 264.6, hit, 1, 0
211, 2, T_Sinc, T_Sinc_URRR, 404.0, hit, 2, 0
212, 2, T_Sinc, T_Sinc_URRR, 487.4, hit, 2, 0
213, 2, T_Sinc, T_Sinc_URRR, 466.9, hit, 2, 0
214, 2, T_Scon, T_Scon_UGLG, 438.3, hit, 1, 0
215, 2, T_Scon, T_Scon_UGLG, 305.8, hit, 1, 0
216, 2, T_Scon, T_Scon_UGLG, 281.2, hit, 1, 0
217, 2, T_Scon, T_Scon_DRRR, 448.4, hit, 2, 0
218, 2, T_Sinc, T_Sinc_DGLG, 427.8, hit, 1, 0
219, 2, T_Scon, T_Scon_UGLG, 491.2, hit, 1, 0
220, 2, T_Scon, T_Scon_DRRR, 370.7, hit, 2, 0
221, 2, T_Scon, T_Scon_UGLG, 314.1, hit, 1, 0
222, 2, T_Sinc, T_Sinc_DGLG, 425.6, hit, 1, 0
223, 2, T_Scon, T_Scon_UGLG, 337.0, hit, 1, 0
224, 2, T_Scon, T_Scon_DRRR, 376.4, hit, 2, 0
225, 2, T_Scon, T_Scon_DRRR, 539.8, hit, 2, 0
226, 2, T_Scon, T_Scon_DRRR, 343.3, hit, 2, 0
227, 2, T_Scon, T_Scon_DRRR, 298.7, hit, 2, 0
228, 2, T_Scon, T_Scon_DRRR, 334.2, hit, 2, 0
229, 2, T_Sinc, T_Sinc_URRR, 373.6, hit, 2, 0
230, 2, T_Scon, T_Scon_UGLG, 425.0, hit, 1, 0
231, 2, T_Scon, T_Scon_DRRR, 412.5, hit, 2, 0
232, 2, T_Scon, T_Scon_UGLG, 271.9, hit, 1, 0
233, 2, T_Scon, T_Scon_DRRR, 515.4, hit, 2, 0
234, 2, T_Scon, T_Scon_UGLG, 426.8, hit, 1, 0
235, 2, T_Scon, T_Scon_UGLG, 282.3, hit, 1, 0
236, 2, T_Scon, T_Scon_DRRR, 333.6, hit, 2, 0
237, 2, T_Scon, T_Scon_DRRR, 273.1, hit, 2, 0
238, 2, T_Sinc, T_Sinc_DGLG, 508.5, hit, 1, 0
239, 2, T_Scon, T_Scon_DRRR, 432.0, hit, 2, 0
240, 2, T_Scon, T_Scon_UGLG, 431.4, hit, 1, 0
241, 2, T_Scon, T_Scon_UGLG, 306.9, hit, 1, 0
242, 2, T_Sinc, T_Sinc_URRR, 390.3, hit, 2, 0
243, 2, T_Scon, T_Scon_DRRR, 457.8, hit, 2, 0
244, 2, T_Scon, T_Scon_UGLG, 381.2, hit, 1, 0
245, 2, T_Scon, T_Scon_UGLG, 344.6, hit, 1, 0
246, 2, T_Sinc, T_Sinc_URRR, 388.1, hit, 2, 0
247, 2, T_Scon, T_Scon_DRRR, 431.4, incorrect, 1, 1
248, 2, T_Scon, T_Scon_DRRR, 450.9, hit, 2, 0
249, 2, T_Sinc, T_Sinc_DGLG, 478.3, hit, 1, 0
250, 2, T_Scon, T_Scon_UGLG, 329.8, hit, 1, 0
251, 2, T_Scon, T_Scon_DRRR, 329.2, hit, 2, 0
252, 2, T_Scon, T_Scon_DRRR, 316.7, hit, 2, 0
253, 2, T_Scon, T_Scon_UGLG, 475.9, hit, 1, 0
254, 2, T_Scon, T_Scon_UGLG, 279.3, hit, 1, 0
255, 2, T_Scon, T_Scon_UGLG, 330.7, hit, 1, 0
256, 2, T_Scon, T_Scon_UGLG, 390.1, hit, 1, 0
257, 2, T_Scon, T_Scon_UGLG, 305.7, hit, 1, 0
258, 2, T_Scon, T_Scon_UGLG, 301.1, hit, 1, 0
259, 2, T_Scon, T_Scon_DRRR, 384.5, hit, 2, 0
260, 2, T_Sinc, T_Sinc_URRR, 351.8, hit, 2, 0
261, 2, T_Scon, T_Scon_UGLG, 339.3, hit, 1, 0
262, 2, T_Scon, T_Scon_DRRR, 474.7, hit, 2, 0
263, 2, T_Scon, T_Scon_UGLG, 326.2, hit, 1, 0
264, 2, T_Scon, T_Scon_UGLG, 405.6, incorrect, 2, 1
265, 2, T_Scon, T_Scon_UGLG, 405.1, hit, 1, 0
266, 2, T_Scon, T_Scon_UGLG, 284.5, hit, 1, 0
267, 2, T_Sinc, T_Sinc_URRR, 600.0, hit, 2, 0
268, 2, T_Scon, T_Scon_DRRR, 407.4, hit, 2, 0
269, 2, T_Sinc, T_Sinc_DGLG, 458.9, hit, 1, 0
270, 2, T_Sinc, T_Sinc_DGLG, 334.3, hit, 1, 0
271, 2, T_Scon, T_Scon_DRRR, 473.8, hit, 2, 0
272, 2, T_Sinc, T_Sinc_DGLG, 365.2, hit, 1, 0
273, 2, T_Sinc, T_Sinc_DGLG, 296.6, hit, 1, 0
274, 2, T_Scon, T_Scon_DRRR, 356.0, hit, 2, 0
275, 2, T_Sinc, T_Sinc_DGLG, 383.5, hit, 1, 0
276, 2, T_Sinc, T_Sinc_URRR, 618.9, hit, 2, 0
277, 2, T_Scon, T_Scon_DRRR, 382.3, hit, 2, 0
278, 2, T_Scon, T_Scon_DRRR, 305.8, hit, 2, 0
279, 2, T_Scon, T_Scon_DRRR, 349.2, hit, 2, 0
280, 2, T_Scon, T_Scon_UGLG, 408.7, hit, 1, 0
281, 2, T_Scon, T_Scon_DRRR, 556.0, hit, 2, 0
282, 2, T_Scon, T_Scon_UGLG, 399.5, hit, 1, 0
283, 2, T_Scon, T_Scon_UGLG, 331.0, hit, 1, 0
284, 2, T_Scon, T_Scon_DRRR, 446.4, hit, 2, 0
285, 2, T_Scon, T_Scon_DRRR, 277.8, hit, 2, 0
286, 2, T_Scon, T_Scon_DRRR, 321.3, hit, 2, 0
287, 2, T_Scon, T_Scon_DRRR, 288.7, hit, 2, 0
288, 2, T_Scon, T_Scon_DRRR, 292.2, hit, 2, 0
289, 3, T_Sinc, T_Sinc_DGLG, 476.6, hit, 1, 0
290, 3, T_Sinc, T_Sinc_URRR, 388.0, hit, 2, 0
291, 3, T_Scon, T_Scon_UGLG, 347.4, hit, 1, 0
292, 3, T_Scon, T_Scon_DRRR, 354.8, hit, 2, 0
293, 3, T_Sinc, T_Sinc_DGLG, 486.3, hit, 1, 0
294, 3, T_Sinc, T_Sinc_URRR, 321.7, hit, 2, 0
295, 3, T_Scon, T_Scon_DRRR, 401.1, hit, 2, 0
296, 3, T_Scon, T_Scon_UGLG, 364.6, hit, 1, 0
297, 3, T_Scon, T_Scon_UGLG, 364.0, hit, 1, 0
298, 3, T_Scon, T_Scon_UGLG, 275.5, hit, 1, 0
299, 3, T_Sinc, T_Sinc_DGLG, 422.9, hit, 1, 0
300, 3, T_Sinc, T_Sinc_URRR, 574.4, hit, 2, 0
301, 3, T_Scon, T_Scon_DRRR, 353.8, hit, 2, 0
302, 3, T_Scon, T_Scon_DRRR, 285.3, hit, 2, 0
303, 3, T_Scon, T_Scon_UGLG, 332.7, hit, 1, 0
304, 3, T_Scon, T_Scon_DRRR, 324.1, hit, 2, 0
305, 3, T_Scon, T_Scon_DRRR, 319.6, hit, 2, 0
306, 3, T_Scon, T_Scon_UGLG, 323.1, hit, 1, 0
307, 3, T_Scon, T_Scon_UGLG, 302.5, hit, 1, 0
308, 3, T_Sinc, T_Sinc_DGLG, 385.9, hit, 1, 0
309, 3, T_Scon, T_Scon_DRRR, 381.3, hit, 2, 0
310, 3, T_Scon, T_Scon_DRRR, 420.8, hit, 2, 0
311, 3, T_Sinc, T_Sinc_URRR, 336.2, hit, 2, 0
312, 3, T_Scon, T_Scon_UGLG, 367.6, hit, 1, 0
313, 3, T_Scon, T_Scon_DRRR, 499.1, hit, 2, 0
314, 3, T_Sinc, T_Sinc_URRR, 398.5, hit, 2, 0
315, 3, T_Sinc, T_Sinc_DGLG, 378.0, hit, 1, 0
316, 3, T_Scon, T_Scon_DRRR, 537.4, hit, 2, 0
317, 3, T_Scon, T_Scon_UGLG, 388.9, hit, 1, 0
318, 3, T_Scon, T_Scon_DRRR, 408.3, hit, 2, 0
319, 3, T_Sinc, T_Sinc_DGLG, 467.7, hit, 1, 0
320, 3, T_Scon, T_Scon_UGLG, 423.1, hit, 1, 0
321, 3, T_Scon, T_Scon_DRRR, 366.6, hit, 2, 0
322, 3, T_Scon, T_Scon_DRRR, 562.0, hit, 2, 0
323, 3, T_Scon, T_Scon_UGLG, 317.5, hit, 1, 0
324, 3, T_Scon, T_Scon_UGLG, 296.9, hit, 1, 0
325, 3, T_Scon, T_Scon_UGLG, 392.1, hit, 1, 0
326, 3, T_Scon, T_Scon_DRRR, 363.5, hit, 2, 0
327, 3, T_Sinc, T_Sinc_DGLG, 430.9, incorrect, 2, 1
328, 3, T_Scon, T_Scon_DRRR, 430.4, hit, 2, 0
329, 3, T_Sinc, T_Sinc_DGLG, 557.8, hit, 1, 0
330, 3, T_Scon, T_Scon_DRRR, 345.3, hit, 2, 0
331, 3, T_Scon, T_Scon_DRRR, 580.7, hit, 2, 0
332, 3, T_Scon, T_Scon_UGLG, 308.2, hit, 1, 0
333, 3, T_Scon, T_Scon_UGLG, 315.6, hit, 1, 0
334, 3, T_Sinc, T_Sinc_DGLG, 507.0, hit, 1, 0
335, 3, T_Scon, T_Scon_UGLG, 274.5, hit, 1, 0
336, 3, T_Sinc, T_Sinc_URRR, 430.0, hit, 2, 0
337, 3, T_Scon, T_Scon_DRRR, 609.3, hit, 2, 0
338, 3, T_Scon, T_Scon_UGLG, 364.7, hit, 1, 0
339, 3, T_Scon, T_Scon_DRRR, 404.2, hit, 2, 0
340, 3, T_Scon, T_Scon_DRRR, 479.6, hit, 2, 0
341, 3, T_Sinc, T_Sinc_URRR, 327.1, hit, 2, 0
342, 3, T_Scon, T_Scon_UGLG, 374.5, hit, 1, 0
343, 3, T_Scon, T_Scon_UGLG, 418.0, hit, 1, 0
344, 3, T_Scon, T_Scon_DRRR, 429.4, hit, 2, 0
345, 3, T_Scon, T_Scon_UGLG, 368.9, hit, 1, 0
346, 3, T_Sinc, T_Sinc_URRR, 476.3, hit, 2, 0
347, 3, T_Scon, T_Scon_UGLG, 271.8, hit, 1, 0
348, 3, T_Scon, T_Scon_UGLG, 367.2, hit, 1, 0
349, 3, T_Scon, T_Scon_UGLG, 298.7, hit, 1, 0
350, 3, T_Sinc, T_Sinc_URRR, 370.0, hit, 2, 0
351, 3, T_Sinc, T_Sinc_URRR, 333.5, hit, 2, 0
352, 3, T_Sinc, T_Sinc_URRR, 276.9, hit, 2, 0
353, 3, T_Sinc, T_Sinc_URRR, 276.4, hit, 2, 0
354, 3, T_Scon, T_Scon_DRRR, 447.8, hit, 2, 0
355, 3, T_Scon, T_Scon_UGLG, 303.3, hit, 1, 0
356, 3, T_Sinc, T_Sinc_DGLG, 362.7, hit, 1, 0
357, 3, T_Scon, T_Scon_DRRR, 414.2, hit, 2, 0
358, 3, T_Scon, T_Scon_UGLG, 521.6, hit, 1, 0
359, 3, T_Scon, T_Scon_DRRR, 468.9, hit, 2, 0
360, 3, T_Scon, T_Scon_UGLG, 336.4, hit, 1, 0
361, 3, T_Scon, T_Scon_UGLG, 363.7, hit, 1, 0
362, 3, T_Scon, T_Scon_UGLG, 255.1, hit, 1, 0
363, 3, T_Sinc, T_Sinc_DGLG, 326.5, incorrect, 2, 1
364, 3, T_Scon, T_Scon_DRRR, 505.9, hit, 2, 0
365, 3, T_Scon, T_Scon_UGLG, 353.3, hit, 1, 0
366, 3, T_Scon, T_Scon_UGLG, 260.8, hit, 1, 0
367, 3, T_Scon, T_Scon_UGLG, 320.2, hit, 1, 0
368, 3, T_Scon, T_Scon_DRRR, 447.6, hit, 2, 0
369, 3, T_Scon, T_Scon_UGLG, 259.1, hit, 1, 0
370, 3, T_Scon, T_Scon_DRRR, 562.5, hit, 2, 0
371, 3, T_Scon, T_Scon_UGLG, 342.0, hit, 1, 0
372, 3, T_Scon, T_Scon_DRRR, 561.4, hit, 2, 0
373, 3, T_Scon, T_Scon_UGLG, 328.9, hit, 1, 0
374, 3, T_Scon, T_Scon_DRRR, 436.3, hit, 2, 0
375, 3, T_Scon, T_Scon_UGLG, 319.8, hit, 1, 0
376, 3, T_Sinc, T_Sinc_URRR, 483.2, hit, 2, 0
377, 3, T_Scon, T_Scon_UGLG, 362.7, hit, 1, 0
378, 3, T_Sinc, T_Sinc_DGLG, 430.0, hit, 1, 0
379, 3, T_Scon, T_Scon_UGLG, 321.5, hit, 1, 0
380, 3, T_Scon, T_Scon_DRRR, 416.9, hit, 2, 0
381, 3, T_Sinc, T_Sinc_DGLG, 372.4, incorrect, 2, 1
382, 3, T_Scon, T_Scon_UGLG, 335.8, hit, 1, 0
383, 3, T_Sinc, T_Sinc_URRR, 443.3, hit, 2, 0
384, 3, T_Scon, T_Scon_DRRR, 458.7, hit, 2, 0
385, 3, T_Scon, T_Scon_UGLG, 254.2, hit, 1, 0
386, 3, T_Scon, T_Scon_DRRR, 473.5, hit, 2, 0
387, 3, T_Scon, T_Scon_UGLG, 276.9, hit, 1, 0
388, 3, T_Scon, T_Scon_UGLG, 248.4, hit, 1, 0
389, 3, T_Scon, T_Scon_UGLG, 279.8, hit, 1, 0
390, 3, T_Scon, T_Scon_UGLG, 251.3, hit, 1, 0
391, 3, T_Sinc, T_Sinc_DGLG, 414.7, hit, 1, 0
392, 3, T_Scon, T_Scon_DRRR, 410.2, hit, 2, 0
393, 3, T_Scon, T_Scon_DRRR, 445.6, hit, 2, 0
394, 3, T_Scon, T_Scon_DRRR, 261.1, hit, 2, 0
395, 3, T_Sinc, T_Sinc_URRR, 280.5, incorrect, 1, 1
396, 3, T_Scon, T_Scon_UGLG, 284.0, hit, 1, 0
397, 3, T_Sinc, T_Sinc_URRR, 419.2, hit, 2, 0
398, 3, T_Sinc, T_Sinc_DGLG, 406.5, hit, 1, 0
399, 3, T_Scon, T_Scon_DRRR, 506.0, hit, 2, 0
400, 3, T_Scon, T_Scon_UGLG, 265.4, hit, 1, 0
401, 3, T_Scon, T_Scon_UGLG, 316.9, hit, 1, 0
402, 3, T_Scon, T_Scon_DRRR, 396.2, hit, 2, 0
403, 3, T_Scon, T_Scon_DRRR, 471.7, hit, 2, 0
404, 3, T_Scon, T_Scon_DRRR, 287.1, hit, 2, 0
405, 3, T_Scon, T_Scon_DRRR, 306.6, hit, 2, 0
406, 3, T_Scon, T_Scon_DRRR, 326.0, hit, 2, 0
407, 3, T_Sinc, T_Sinc_URRR, 337.5, incorrect, 1, 1
408, 3, T_Scon, T_Scon_UGLG, 364.9, hit, 1, 0
409, 3, T_Scon, T_Scon_UGLG, 288.4, hit, 1, 0
410, 3, T_Scon, T_Scon_DRRR, 359.8, hit, 2, 0
411, 3, T_Scon, T_Scon_UGLG, 371.3, hit, 1, 0
412, 3, T_Scon, T_Scon_DRRR, 390.7, hit, 2, 0
413, 3, T_Sinc, T_Sinc_DGLG, 434.2, hit, 1, 0
414, 3, T_Scon, T_Scon_UGLG, 373.5, hit, 1, 0
415, 3, T_Scon, T_Scon_DRRR, 401.0, hit, 2, 0
416, 3, T_Scon, T_Scon_UGLG, 428.4, hit, 1, 0
417, 3, T_Scon, T_Scon_UGLG, 327.9, hit, 1, 0
418, 3, T_Scon, T_Scon_DRRR, 395.3, hit, 2, 0
419, 3, T_Sinc, T_Sinc_DGLG, 338.8, hit, 1, 0
420, 3, T_Sinc, T_Sinc_URRR, 422.2, hit, 2, 0
421, 3, T_Scon, T_Scon_DRRR, 641.6, hit, 2, 0
422, 3, T_Scon, T_Scon_DRRR, 365.1, hit, 2, 0
423, 3, T_Scon, T_Scon_DRRR, 316.5, hit, 2, 0
424, 3, T_Scon, T_Scon_UGLG, 335.9, hit, 1, 0
425, 3, T_Scon, T_Scon_DRRR, 367.3, hit, 2, 0
426, 3, T_Scon, T_Scon_DRRR, 326.8, hit, 2, 0
427, 3, T_Scon, T_Scon_UGLG, 386.2, hit, 1, 0
428, 3, T_Scon, T_Scon_DRRR, 377.7, hit, 2, 0
429, 3, T_Sinc, T_Sinc_DGLG, 397.1, hit, 1, 0
430, 3, T_Scon, T_Scon_DRRR, 420.6, hit, 2, 0
431, 3, T_Scon, T_Scon_DRRR, 464.0, hit, 2, 0
432, 3, T_Scon, T_Scon_DRRR, 331.4, hit, 2, 0
433, 4, T_Scon, T_Scon_DRRR, 494.7, hit, 2, 0
434, 4, T_Scon, T_Scon_DRRR, 290.1, hit, 2, 0
435, 4, T_Sinc, T_Sinc_URRR, 349.6, hit, 2, 0
436, 4, T_Scon, T_Scon_UGLG, 385.0, hit, 1, 0
437, 4, T_Sinc, T_Sinc_DGLG, 380.4, hit, 1, 0
438, 4, T_Sinc, T_Sinc_URRR, 403.9, hit, 2, 0
439, 4, T_Scon, T_Scon_DRRR, 327.3, incorrect, 1, 1
440, 4, T_Sinc, T_Sinc_URRR, 398.7, hit, 2, 0
441, 4, T_Scon, T_Scon_UGLG, 478.1, hit, 1, 0
442, 4, T_Sinc, T_Sinc_URRR, 601.6, hit, 2, 0
443, 4, T_Sinc, T_Sinc_DGLG, 397.0, hit, 1, 0
444, 4, T_Sinc, T_Sinc_DGLG, 428.5, hit, 1, 0
445, 4, T_Sinc, T_Sinc_DGLG, 299.9, hit, 1, 0
446, 4, T_Sinc, T_Sinc_URRR, 391.4, hit, 2, 0
447, 4, T_Sinc, T_Sinc_DGLG, 582.8, hit, 1, 0
448, 4, T_Sinc, T_Sinc_DGLG, 318.3, hit, 1, 0
449, 4, T_Sinc, T_Sinc_DGLG, 321.7, hit, 1, 0
450, 4, T_Scon, T_Scon_UGLG, 337.2, hit, 1, 0
451, 4, T_Sinc, T_Sinc_DGLG, 380.5, hit, 1, 0
452, 4, T_Scon, T_Scon_UGLG, 316.0, hit, 1, 0
453, 4, T_Scon, T_Scon_UGLG, 291.4, hit, 1, 0
454, 4, T_Sinc, T_Sinc_DGLG, 386.8, hit, 1, 0
455, 4, T_Sinc, T_Sinc_DGLG, 314.3, hit, 1, 0
456, 4, T_Scon, T_Scon_DRRR, 485.7, hit, 2, 0
457, 4, T_Sinc, T_Sinc_DGLG, 649.2, hit, 1, 0
458, 4, T_Sinc, T_Sinc_DGLG, 344.6, hit, 1, 0
459, 4, T_Scon, T_Scon_UGLG, 368.1, hit, 1, 0
460, 4, T_Scon, T_Scon_UGLG, 251.5, hit, 1, 0
461, 4, T_Sinc, T_Sinc_URRR, 378.9, hit, 2, 0
462, 4, T_Sinc, T_Sinc_DGLG, 302.3, hit, 1, 0
463, 4, T_Sinc, T_Sinc_DGLG, 301.8, hit, 1, 0
464, 4, T_Scon, T_Scon_DRRR, 425.2, hit, 2, 0
465, 4, T_Sinc, T_Sinc_DGLG, 516.7, hit, 1, 0
466, 4, T_Sinc, T_Sinc_DGLG, 268.1, hit, 1, 0
467, 4, T_Sinc, T_Sinc_URRR, 403.6, hit, 2, 0
468, 4, T_Sinc, T_Sinc_URRR, 275.0, hit, 2, 0
469, 4, T_Sinc, T_Sinc_DGLG, 370.2, hit, 1, 0
470, 4, T_Sinc, T_Sinc_URRR, 317.6, hit, 2, 0
471, 4, T_Sinc, T_Sinc_DGLG, 333.0, hit, 1, 0
472, 4, T_Scon, T_Scon_UGLG, 368.5, hit, 1, 0
473, 4, T_Sinc, T_Sinc_DGLG, 339.9, hit, 1, 0
474, 4, T_Sinc, T_Sinc_URRR, 443.4, hit, 2, 0
475, 4, T_Scon, T_Scon_DRRR, 494.8, hit, 2, 0
476, 4, T_Scon, T_Scon_UGLG, 370.2, hit, 1, 0
477, 4, T_Sinc, T_Sinc_DGLG, 405.7, hit, 1, 0
478, 4, T_Sinc, T_Sinc_URRR, 513.1, hit, 2, 0
479, 4, T_Sinc, T_Sinc_DGLG, 508.6, hit, 1, 0
480, 4, T_Sinc, T_Sinc_URRR, 600.0, incorrect, 1, 1
481, 4, T_Sinc, T_Sinc_URRR, 419.4, hit, 2, 0
482, 4, T_Scon, T_Scon_UGLG, 414.8, hit, 1, 0
483, 4, T_Sinc, T_Sinc_URRR, 498.3, hit, 2, 0
484, 4, T_Sinc, T_Sinc_URRR, 413.8, hit, 2, 0
485, 4, T_Sinc, T_Sinc_URRR, 285.2, hit, 2, 0
486, 4, T_Sinc, T_Sinc_URRR, 288.6, hit, 2, 0
487, 4, T_Sinc, T_Sinc_URRR, 324.1, hit, 2, 0
488, 4, T_Scon, T_Scon_DRRR, 355.5, hit, 2, 0
489, 4, T_Sinc, T_Sinc_DGLG, 439.0, hit, 1, 0
490, 4, T_Sinc, T_Sinc_URRR, 418.3, hit, 2, 0
491, 4, T_Sinc, T_Sinc_DGLG, 537.8, hit, 1, 0
492, 4, T_Sinc, T_Sinc_DGLG, 429.2, hit, 1, 0
493, 4, T_Sinc, T_Sinc_URRR, 720.7, hit, 2, 0
494, 4, T_Sinc, T_Sinc_URRR, 348.1, hit, 2, 0
495, 4, T_Sinc, T_Sinc_URRR, 547.6, hit, 2, 0
496, 4, T_Sinc, T_Sinc_URRR, 275.0, hit, 2, 0
497, 4, T_Sinc, T_Sinc_URRR, 262.5, hit, 2, 0
498, 4, T_Sinc, T_Sinc_DGLG, 369.9, hit, 1, 0
499, 4, T_Scon, T_Scon_UGLG, 333.3, hit, 1, 0
500, 4, T_Sinc, T_Sinc_DGLG, 360.8, hit, 1, 0
501, 4, T_Sinc, T_Sinc_DGLG, 244.2, hit, 1, 0
502, 4, T_Sinc, T_Sinc_URRR, 399.7, hit, 2, 0
503, 4, T_Sinc, T_Sinc_URRR, 303.1, hit, 2, 0
504, 4, T_Sinc, T_Sinc_DGLG, 378.6, hit, 1, 0
505, 4, T_Sinc, T_Sinc_DGLG, 361.7, hit, 1, 0
506, 4, T_Sinc, T_Sinc_URRR, 353.1, hit, 2, 0
507, 4, T_Sinc, T_Sinc_DGLG, 392.6, hit, 1, 0
508, 4, T_Sinc, T_Sinc_URRR, 396.0, hit, 2, 0
509, 4, T_Sinc, T_Sinc_URRR, 323.5, hit, 2, 0
510, 4, T_Sinc, T_Sinc_URRR, 262.9, hit, 2, 0
511, 4, T_Sinc, T_Sinc_DGLG, 326.4, hit, 1, 0
512, 4, T_Sinc, T_Sinc_DGLG, 273.7, hit, 1, 0
513, 4, T_Sinc, T_Sinc_DGLG, 245.2, hit, 1, 0
514, 4, T_Scon, T_Scon_UGLG, 488.6, hit, 1, 0
515, 4, T_Sinc, T_Sinc_URRR, 452.1, hit, 2, 0
516, 4, T_Sinc, T_Sinc_URRR, 359.5, hit, 2, 0
517, 4, T_Sinc, T_Sinc_URRR, 271.0, hit, 2, 0
518, 4, T_Sinc, T_Sinc_DGLG, 314.4, hit, 1, 0
519, 4, T_Sinc, T_Sinc_DGLG, 321.9, hit, 1, 0
520, 4, T_Sinc, T_Sinc_URRR, 501.3, hit, 2, 0
521, 4, T_Scon, T_Scon_DRRR, 392.8, hit, 2, 0
522, 4, T_Sinc, T_Sinc_DGLG, 388.1, hit, 1, 0
523, 4, T_Scon, T_Scon_DRRR, 495.6, hit, 2, 0
524, 4, T_Sinc, T_Sinc_URRR, 427.0, hit, 2, 0
525, 4, T_Sinc, T_Sinc_URRR, 326.5, hit, 2, 0
526, 4, T_Scon, T_Scon_DRRR, 341.9, hit, 2, 0
527, 4, T_Sinc, T_Sinc_URRR, 249.3, hit, 2, 0
528, 4, T_Sinc, T_Sinc_DGLG, 384.8, hit, 1, 0
529, 4, T_Sinc, T_Sinc_URRR, 460.2, hit, 2, 0
530, 4, T_Sinc, T_Sinc_URRR, 343.7, hit, 2, 0
531, 4, T_Sinc, T_Sinc_DGLG, 363.1, hit, 1, 0
532, 4, T_Scon, T_Scon_UGLG, 298.6, hit, 1, 0
533, 4, T_Sinc, T_Sinc_URRR, 418.0, hit, 2, 0
534, 4, T_Scon, T_Scon_UGLG, 285.4, hit, 1, 0
535, 4, T_Sinc, T_Sinc_DGLG, 484.8, hit, 1, 0
536, 4, T_Scon, T_Scon_DRRR, 468.3, hit, 2, 0
537, 4, T_Sinc, T_Sinc_URRR, 319.7, hit, 2, 0
538, 4, T_Sinc, T_Sinc_DGLG, 355.2, hit, 1, 0
539, 4, T_Sinc, T_Sinc_DGLG, 326.6, hit, 1, 0
540, 4, T_Sinc, T_Sinc_DGLG, 306.1, hit, 1, 0
541, 4, T_Sinc, T_Sinc_URRR, 401.2, hit, 2, 0
542, 4, T_Scon, T_Scon_DRRR, 388.6, hit, 2, 0
543, 4, T_Sinc, T_Sinc_URRR, 400.1, hit, 2, 0
544, 4, T_Sinc, T_Sinc_URRR, 259.5, hit, 2, 0
545, 4, T_Sinc, T_Sinc_URRR, 315.0, hit, 2, 0
546, 4, T_Sinc, T_Sinc_DGLG, 402.4, hit, 1, 0
547, 4, T_Sinc, T_Sinc_URRR, 477.9, hit, 2, 0
548, 4, T_Sinc, T_Sinc_DGLG, 465.2, hit, 1, 0
549, 4, T_Sinc, T_Sinc_DGLG, 388.7, hit, 1, 0
550, 4, T_Scon, T_Scon_UGLG, 312.1, hit, 1, 0
551, 4, T_Sinc, T_Sinc_URRR, 403.6, hit, 2, 0
552, 4, T_Sinc, T_Sinc_DGLG, 471.0, hit, 1, 0
553, 4, T_Sinc, T_Sinc_DGLG, 314.5, hit, 1, 0
554, 4, T_Sinc, T_Sinc_DGLG, 265.9, hit, 1, 0
555, 4, T_Sinc, T_Sinc_URRR, 445.4, hit, 2, 0
556, 4, T_Scon, T_Scon_UGLG, 544.8, hit, 1, 0
557, 4, T_Scon, T_Scon_UGLG, 388.2, hit, 1, 0
558, 4, T_Sinc, T_Sinc_DGLG, 359.6, hit, 1, 0
559, 4, T_Sinc, T_Sinc_URRR, 387.1, hit, 2, 0
560, 4, T_Sinc, T_Sinc_URRR, 358.5, hit, 2, 0
561, 4, T_Sinc, T_Sinc_DGLG, 385.9, hit, 1, 0
562, 4, T_Sinc, T_Sinc_URRR, 385.4, hit, 2, 0
563, 4, T_Sinc, T_Sinc_DGLG, 380.8, hit, 1, 0
564, 4, T_Sinc, T_Sinc_URRR, 664.3, hit, 2, 0
565, 4, T_Scon, T_Scon_DRRR, 447.7, hit, 2, 0
566, 4, T_Sinc, T_Sinc_DGLG, 371.2, hit, 1, 0
567, 4, T_Scon, T_Scon_DRRR, 590.6, hit, 2, 0
568, 4, T_Sinc, T_Sinc_URRR, 290.0, hit, 2, 0
569, 4, T_Scon, T_Scon_DRRR, 349.4, hit, 2, 0
570, 4, T_Scon, T_Scon_UGLG, 440.9, hit, 1, 0
571, 4, T_Sinc, T_Sinc_DGLG, 408.3, hit, 1, 0
572, 4, T_Scon, T_Scon_DRRR, 395.8, hit, 2, 0
573, 4, T_Sinc, T_Sinc_URRR, 467.2, hit, 2, 0
574, 4, T_Scon, T_Scon_DRRR, 386.7, hit, 2, 0
575, 4, T_Sinc, T_Sinc_DGLG, 358.1, hit, 1, 0
576, 4, T_Scon, T_Scon_DRRR, 361.6, hit, 2, 0
577, 5, T_Sinc, T_Sinc_DGLG, 434.1, hit, 1, 0
578, 5, T_Sinc, T_Sinc_DGLG, 261.5, hit, 1, 0
579, 5, T_Sinc, T_Sinc_DGLG, 249.0, hit, 1, 0
580, 5, T_Sinc, T_Sinc_DGLG, 276.4, hit, 1, 0
581, 5, T_Sinc, T_Sinc_DGLG, 259.9, hit, 1, 0
582, 5, T_Sinc, T_Sinc_DGLG, 267.3, hit, 1, 0
583, 5, T_Scon, T_Scon_UGLG, 374.7, hit, 1, 0
584, 5, T_Scon, T_Scon_UGLG, 302.1, hit, 1, 0
585, 5, T_Sinc, T_Sinc_URRR, 493.6, hit, 2, 0
586, 5, T_Sinc, T_Sinc_DGLG, 357.0, hit, 1, 0
587, 5, T_Sinc, T_Sinc_DGLG, 320.5, hit, 1, 0
588, 5, T_Scon, T_Scon_DRRR, 339.9, hit, 2, 0
589, 5, T_Sinc, T_Sinc_URRR, 447.4, hit, 2, 0
590, 5, T_Sinc, T_Sinc_DGLG, 430.8, hit, 1, 0
591, 5, T_Scon, T_Scon_DRRR, 630.3, hit, 2, 0
592, 5, T_Sinc, T_Sinc_URRR, 501.8, hit, 2, 0
593, 5, T_Scon, T_Scon_UGLG, 433.2, hit, 1, 0
594, 5, T_Sinc, T_Sinc_DGLG, 448.6, hit, 1, 0
595, 5, T_Sinc, T_Sinc_URRR, 752.0, hit, 2, 2
596, 5, T_Sinc, T_Sinc_URRR, 303.4, hit, 2, 0
597, 5, T_Scon, T_Scon_DRRR, 326.9, hit, 2, 0
598, 5, T_Sinc, T_Sinc_DGLG, 394.3, hit, 1, 0
599, 5, T_Scon, T_Scon_UGLG, 981.7, hit, 1, 2
600, 5, T_Sinc, T_Sinc_DGLG, 385.2, hit, 1, 0
601, 5, T_Scon, T_Scon_UGLG, 232.6, hit, 1, 0
602, 5, T_Sinc, T_Sinc_URRR, 428.1, hit, 2, 0
603, 5, T_Sinc, T_Sinc_URRR, 315.5, hit, 2, 0
604, 5, T_Sinc, T_Sinc_URRR, 363.0, hit, 2, 0
605, 5, T_Scon, T_Scon_UGLG, 374.5, hit, 1, 0
606, 5, T_Scon, T_Scon_UGLG, 297.9, hit, 1, 0
607, 5, T_Scon, T_Scon_DRRR, 509.3, hit, 2, 0
608, 5, T_Scon, T_Scon_UGLG, 424.7, hit, 1, 0
609, 5, T_Sinc, T_Sinc_URRR, 556.1, hit, 2, 0
610, 5, T_Sinc, T_Sinc_URRR, 307.6, hit, 2, 0
611, 5, T_Sinc, T_Sinc_URRR, 263.0, hit, 2, 0
612, 5, T_Sinc, T_Sinc_DGLG, 366.5, hit, 1, 0
613, 5, T_Sinc, T_Sinc_URRR, 413.6, hit, 2, 0
614, 5, T_Sinc, T_Sinc_URRR, 473.0, hit, 2, 0
615, 5, T_Scon, T_Scon_UGLG, 336.5, hit, 1, 0
616, 5, T_Sinc, T_Sinc_URRR, 443.9, hit, 2, 0
617, 5, T_Scon, T_Scon_DRRR, 435.4, hit, 2, 0
618, 5, T_Scon, T_Scon_UGLG, 378.8, hit, 1, 0
619, 5, T_Sinc, T_Sinc_DGLG, 394.3, hit, 1, 0
620, 5, T_Sinc, T_Sinc_URRR, 369.7, hit, 2, 0
621, 5, T_Sinc, T_Sinc_DGLG, 413.1, hit, 1, 0
622, 5, T_Sinc, T_Sinc_DGLG, 408.5, hit, 1, 0
623, 5, T_Scon, T_Scon_DRRR, 520.0, hit, 2, 0
624, 5, T_Sinc, T_Sinc_URRR, 563.4, hit, 2, 0
625, 5, T_Sinc, T_Sinc_URRR, 334.9, hit, 2, 0
626, 5, T_Sinc, T_Sinc_URRR, 234.3, hit, 2, 0
627, 5, T_Sinc, T_Sinc_URRR, 245.7, hit, 2, 0
628, 5, T_Scon, T_Scon_UGLG, 369.2, hit, 1, 0
629, 5, T_Scon, T_Scon_DRRR, 492.6, hit, 2, 0
630, 5, T_Scon, T_Scon_UGLG, 336.1, hit, 1, 0
631, 5, T_Sinc, T_Sinc_URRR, 527.5, hit, 2, 0
632, 5, T_Scon, T_Scon_DRRR, 391.0, hit, 2, 0
633, 5, T_Sinc, T_Sinc_URRR, 450.4, hit, 2, 0
634, 5, T_Sinc, T_Sinc_DGLG, 437.9, hit, 1, 0
635, 5, T_Sinc, T_Sinc_URRR, 489.3, hit, 2, 0
636, 5, T_Sinc, T_Sinc_DGLG, 476.8, hit, 1, 0
637, 5, T_Sinc, T_Sinc_URRR, 416.1, hit, 2, 0
638, 5, T_Sinc, T_Sinc_DGLG, 311.6, hit, 1, 0
639, 5, T_Scon, T_Scon_DRRR, 467.0, hit, 2, 0
640, 5, T_Sinc, T_Sinc_URRR, 310.5, hit, 2, 0
641, 5, T_Scon, T_Scon_UGLG, 365.9, hit, 1, 0
642, 5, T_Sinc, T_Sinc_DGLG, 465.4, hit, 1, 0
643, 5, T_Sinc, T_Sinc_URRR, 576.8, hit, 2, 0
644, 5, T_Sinc, T_Sinc_DGLG, 480.3, hit, 1, 0
645, 5, T_Scon, T_Scon_DRRR, 479.7, hit, 2, 0
646, 5, T_Scon, T_Scon_DRRR, 303.1, hit, 2, 0
647, 5, T_Sinc, T_Sinc_URRR, 290.5, hit, 2, 0
648, 5, T_Sinc, T_Sinc_DGLG, 453.9, hit, 1, 0
649, 5, T_Sinc, T_Sinc_URRR, 497.2, hit, 2, 0
650, 5, T_Sinc, T_Sinc_URRR, 244.6, hit, 2, 0
651, 5, T_Sinc, T_Sinc_DGLG, 376.0, hit, 1, 0
652, 5, T_Sinc, T_Sinc_DGLG, 419.5, hit, 1, 0
653, 5, T_Scon, T_Scon_DRRR, 478.9, hit, 2, 0
654, 5, T_Sinc, T_Sinc_URRR, 338.3, hit, 2, 0
655, 5, T_Scon, T_Scon_UGLG, 405.7, hit, 1, 0
656, 5, T_Scon, T_Scon_DRRR, 481.2, hit, 2, 0
657, 5, T_Sinc, T_Sinc_DGLG, 532.6, hit, 1, 0
658, 5, T_Sinc, T_Sinc_DGLG, 320.1, hit, 1, 0
659, 5, T_Sinc, T_Sinc_DGLG, 291.5, hit, 1, 0
660, 5, T_Scon, T_Scon_DRRR, 439.0, hit, 2, 0
661, 5, T_Sinc, T_Sinc_URRR, 458.4, hit, 2, 0
662, 5, T_Sinc, T_Sinc_DGLG, 409.9, hit, 1, 0
663, 5, T_Sinc, T_Sinc_URRR, 501.2, hit, 2, 0
664, 5, T_Sinc, T_Sinc_DGLG, 408.7, hit, 1, 0
665, 5, T_Sinc, T_Sinc_URRR, 472.1, hit, 2, 0
666, 5, T_Sinc, T_Sinc_URRR, 367.6, hit, 2, 0
667, 5, T_Sinc, T_Sinc_URRR, 375.0, hit, 2, 0
668, 5, T_Scon, T_Scon_UGLG, 562.5, hit, 1, 0
669, 5, T_Sinc, T_Sinc_DGLG, 573.9, hit, 1, 0
670, 5, T_Sinc, T_Sinc_DGLG, 317.4, hit, 1, 0
671, 5, T_Sinc, T_Sinc_DGLG, 344.8, hit, 1, 0
672, 5, T_Scon, T_Scon_UGLG, 332.3, hit, 1, 0
673, 5, T_Sinc, T_Sinc_DGLG, 327.7, hit, 1, 0
674, 5, T_Sinc, T_Sinc_DGLG, 291.1, hit, 1, 0
675, 5, T_Sinc, T_Sinc_URRR, 390.6, hit, 2, 0
676, 5, T_Scon, T_Scon_UGLG, 373.9, hit, 1, 0
677, 5, T_Sinc, T_Sinc_URRR, 897.4, hit, 2, 2
678, 5, T_Sinc, T_Sinc_DGLG, 400.8, hit, 1, 0
679, 5, T_Scon, T_Scon_DRRR, 564.3, hit, 2, 0
680, 5, T_Sinc, T_Sinc_DGLG, 447.7, hit, 1, 0
681, 5, T_Sinc, T_Sinc_DGLG, 955.2, hit, 1, 2
682, 5, T_Sinc, T_Sinc_URRR, 454.6, hit, 2, 0
683, 5, T_Scon, T_Scon_UGLG, 578.0, hit, 1, 0
684, 5, T_Sinc, T_Sinc_DGLG, 333.4, hit, 1, 0
685, 5, T_Sinc, T_Sinc_DGLG, 416.7, hit, 1, 0
686, 5, T_Sinc, T_Sinc_URRR, 420.1, hit, 2, 0
687, 5, T_Scon, T_Scon_DRRR, 559.5, hit, 2, 0
688, 5, T_Sinc, T_Sinc_DGLG, 395.0, hit, 1, 0
689, 5, T_Sinc, T_Sinc_URRR, 386.3, hit, 2, 0
690, 5, T_Sinc, T_Sinc_DGLG, 405.8, hit, 1, 0
691, 5, T_Sinc, T_Sinc_URRR, 393.2, hit, 2, 0
692, 5, T_Sinc, T_Sinc_URRR, 596.7, hit, 2, 0
693, 5, T_Sinc, T_Sinc_URRR, 248.1, hit, 2, 0
694, 5, T_Sinc, T_Sinc_DGLG, 443.6, hit, 1, 0
695, 5, T_Scon, T_Scon_DRRR, 427.0, hit, 2, 0
696, 5, T_Sinc, T_Sinc_URRR, 406.5, hit, 2, 0
697, 5, T_Sinc, T_Sinc_DGLG, 401.9, hit, 1, 0
698, 5, T_Sinc, T_Sinc_DGLG, 333.4, hit, 1, 0
699, 5, T_Sinc, T_Sinc_URRR, 420.7, hit, 2, 0
700, 5, T_Sinc, T_Sinc_URRR, 312.2, hit, 2, 0
701, 5, T_Sinc, T_Sinc_DGLG, 419.6, hit, 1, 0
702, 5, T_Sinc, T_Sinc_DGLG, 291.1, hit, 1, 0
703, 5, T_Sinc, T_Sinc_DGLG, 330.5, hit, 1, 0
704, 5, T_Sinc, T_Sinc_DGLG, 258.0, hit, 1, 0
705, 5, T_Sinc, T_Sinc_URRR, 421.4, hit, 2, 0
706, 5, T_Scon, T_Scon_DRRR, 368.9, hit, 2, 0
707, 5, T_Sinc, T_Sinc_DGLG, 436.3, hit, 1, 0
708, 5, T_Sinc, T_Sinc_URRR, 655.6, hit, 2, 0
709, 5, T_Sinc, T_Sinc_DGLG, 483.1, hit, 1, 0
710, 5, T_Sinc, T_Sinc_DGLG, 318.5, hit, 1, 0
711, 5, T_Sinc, T_Sinc_URRR, 374.0, hit, 2, 0
712, 5, T_Sinc, T_Sinc_URRR, 513.4, hit, 2, 0
713, 5, T_Sinc, T_Sinc_URRR, 300.9, hit, 2, 0
714, 5, T_Sinc, T_Sinc_URRR, 288.3, hit, 2, 0
715, 5, T_Sinc, T_Sinc_URRR, 331.8, hit, 2, 0
716, 5, T_Sinc, T_Sinc_DGLG, 591.2, hit, 1, 0
717, 5, T_Sinc, T_Sinc_DGLG, 314.7, hit, 1, 0
718, 5, T_Sinc, T_Sinc_URRR, 838.1, hit, 2, 2
719, 5, T_Sinc, T_Sinc_DGLG, 449.6, hit, 1, 0
720, 5, T_Sinc, T_Sinc_URRR, 369.0, hit, 2, 0
721, 6, T_Scon, T_Scon_UGLG, 443.4, hit, 1, 0
722, 6, T_Sinc, T_Sinc_URRR, 390.9, hit, 2, 0
723, 6, T_Sinc, T_Sinc_URRR, 282.3, hit, 2, 0
724, 6, T_Sinc, T_Sinc_DGLG, 321.8, hit, 1, 0
725, 6, T_Sinc, T_Sinc_DGLG, 373.1, incorrect, 2, 1
726, 6, T_Sinc, T_Sinc_DGLG, 280.5, hit, 1, 0
727, 6, T_Scon, T_Scon_DRRR, 384.0, hit, 2, 0
728, 6, T_Scon, T_Scon_DRRR, 387.4, hit, 2, 0
729, 6, T_Scon, T_Scon_DRRR, 250.9, hit, 2, 0
730, 6, T_Sinc, T_Sinc_DGLG, 522.3, hit, 1, 0
731, 6, T_Sinc, T_Sinc_URRR, 461.8, hit, 2, 0
732, 6, T_Sinc, T_Sinc_URRR, 365.2, hit, 2, 0
733, 6, T_Sinc, T_Sinc_DGLG, 332.6, hit, 1, 0
734, 6, T_Sinc, T_Sinc_DGLG, 288.0, hit, 1, 0
735, 6, T_Sinc, T_Sinc_DGLG, 315.5, hit, 1, 0
736, 6, T_Sinc, T_Sinc_DGLG, 294.9, hit, 1, 0
737, 6, T_Sinc, T_Sinc_URRR, 402.4, hit, 2, 0
738, 6, T_Scon, T_Scon_DRRR, 377.8, hit, 2, 0
739, 6, T_Sinc, T_Sinc_URRR, 277.3, hit, 2, 0
740, 6, T_Scon, T_Scon_UGLG, 416.7, hit, 1, 0
741, 6, T_Sinc, T_Sinc_URRR, 900.2, hit, 2, 2
742, 6, T_Sinc, T_Sinc_DGLG, 423.6, hit, 1, 0
743, 6, T_Sinc, T_Sinc_URRR, 638.9, hit, 2, 0
744, 6, T_Sinc, T_Sinc_DGLG, 394.4, hit, 1, 0
745, 6, T_Sinc, T_Sinc_URRR, 441.8, hit, 2, 0
746, 6, T_Sinc, T_Sinc_DGLG, 453.3, hit, 1, 0
747, 6, T_Sinc, T_Sinc_URRR, 500.7, hit, 2, 0
748, 6, T_Sinc, T_Sinc_URRR, 368.2, hit, 2, 0
749, 6, T_Sinc, T_Sinc_DGLG, 395.6, hit, 1, 0
750, 6, T_Scon, T_Scon_DRRR, 467.1, hit, 2, 0
751, 6, T_Sinc, T_Sinc_DGLG, 422.5, hit, 1, 0
752, 6, T_Sinc, T_Sinc_URRR, 354.0, hit, 2, 0
753, 6, T_Scon, T_Scon_UGLG, 389.4, hit, 1, 0
754, 6, T_Scon, T_Scon_UGLG, 272.9, hit, 1, 0
755, 6, T_Sinc, T_Sinc_URRR, 420.3, hit, 2, 0
756, 6, T_Sinc, T_Sinc_URRR, 291.8, hit, 2, 0
757, 6, T_Sinc, T_Sinc_URRR, 426.9, hit, 2, 0
758, 6, T_Scon, T_Scon_DRRR, 326.3, hit, 2, 0
759, 6, T_Sinc, T_Sinc_URRR, 297.8, hit, 2, 0
760, 6, T_Scon, T_Scon_DRRR, 229.2, hit, 2, 0
761, 6, T_Scon, T_Scon_DRRR, 260.7, hit, 2, 0
762, 6, T_Sinc, T_Sinc_DGLG, 420.1, hit, 1, 0
763, 6, T_Sinc, T_Sinc_DGLG, 279.5, hit, 1, 0
764, 6, T_Sinc, T_Sinc_URRR, 370.9, hit, 2, 0
765, 6, T_Scon, T_Scon_DRRR, 502.4, hit, 2, 0
766, 6, T_Sinc, T_Sinc_DGLG, 409.8, hit, 1, 0
767, 6, T_Sinc, T_Sinc_URRR, 301.3, hit, 2, 0
768, 6, T_Scon, T_Scon_UGLG, 320.7, hit, 1, 0
769, 6, T_Sinc, T_Sinc_DGLG, 404.2, hit, 1, 0
770, 6, T_Scon, T_Scon_DRRR, 479.6, hit, 2, 0
771, 6, T_Sinc, T_Sinc_DGLG, 355.1, incorrect, 2, 1
772, 6, T_Sinc, T_Sinc_URRR, 454.5, hit, 2, 0
773, 6, T_Scon, T_Scon_DRRR, 561.8, hit, 2, 0
774, 6, T_Sinc, T_Sinc_DGLG, 353.3, hit, 1, 0
775, 6, T_Sinc, T_Sinc_DGLG, 272.7, hit, 1, 0
776, 6, T_Sinc, T_Sinc_DGLG, 268.2, hit, 1, 0
777, 6, T_Scon, T_Scon_UGLG, 331.6, hit, 1, 0
778, 6, T_Sinc, T_Sinc_URRR, 399.1, hit, 2, 0
779, 6, T_Sinc, T_Sinc_URRR, 450.5, hit, 2, 0
780, 6, T_Sinc, T_Sinc_URRR, 270.0, hit, 2, 0
781, 6, T_Sinc, T_Sinc_URRR, 249.4, hit, 2, 0
782, 6, T_Sinc, T_Sinc_URRR, 252.9, hit, 2, 0
783, 6, T_Sinc, T_Sinc_DGLG, 400.2, hit, 1, 0
784, 6, T_Sinc, T_Sinc_DGLG, 247.7, hit, 1, 0
785, 6, T_Sinc, T_Sinc_URRR, 359.1, hit, 2, 0
786, 6, T_Sinc, T_Sinc_URRR, 362.6, hit, 2, 0
787, 6, T_Scon, T_Scon_DRRR, 338.0, hit, 2, 0
788, 6, T_Sinc, T_Sinc_URRR, 257.5, hit, 2, 0
789, 6, T_Sinc, T_Sinc_DGLG, 396.9, hit, 1, 0
790, 6, T_Sinc, T_Sinc_URRR, 432.4, hit, 2, 0
791, 6, T_Sinc, T_Sinc_URRR, 339.8, hit, 2, 0
792, 6, T_Sinc, T_Sinc_DGLG, 455.2, hit, 1, 0
793, 6, T_Sinc, T_Sinc_DGLG, 374.4, hit, 1, 0
794, 6, T_Sinc, T_Sinc_URRR, 361.8, hit, 2, 0
795, 6, T_Sinc, T_Sinc_DGLG, 317.3, hit, 1, 0
796, 6, T_Sinc, T_Sinc_DGLG, 236.7, hit, 1, 0
797, 6, T_Sinc, T_Sinc_URRR, 340.2, hit, 2, 0
798, 6, T_Sinc, T_Sinc_DGLG, 399.6, hit, 1, 0
799, 6, T_Sinc, T_Sinc_DGLG, 351.0, hit, 1, 0
800, 6, T_Sinc, T_Sinc_DGLG, 262.5, hit, 1, 0
801, 6, T_Sinc, T_Sinc_URRR, 361.9, hit, 2, 0
802, 6, T_Sinc, T_Sinc_URRR, 401.3, hit, 2, 0
803, 6, T_Scon, T_Scon_UGLG, 240.7, incorrect, 2, 1
804, 6, T_Sinc, T_Sinc_DGLG, 324.2, hit, 1, 0
805, 6, T_Sinc, T_Sinc_URRR, 435.6, hit, 2, 0
806, 6, T_Sinc, T_Sinc_URRR, 783.0, hit, 2, 2
807, 6, T_Sinc, T_Sinc_DGLG, 402.5, hit, 1, 0
808, 6, T_Sinc, T_Sinc_URRR, 574.0, hit, 2, 0
809, 6, T_Sinc, T_Sinc_DGLG, 369.4, hit, 1, 0
810, 6, T_Sinc, T_Sinc_URRR, 348.9, hit, 2, 0
811, 6, T_Sinc, T_Sinc_DGLG, 348.3, hit, 1, 0
812, 6, T_Sinc, T_Sinc_DGLG, 251.7, hit, 1, 0
813, 6, T_Scon, T_Scon_UGLG, 307.1, hit, 1, 0
814, 6, T_Scon, T_Scon_UGLG, 294.6, hit, 1, 0
815, 6, T_Sinc, T_Sinc_URRR, 490.0, hit, 2, 0
816, 6, T_Scon, T_Scon_DRRR, 321.4, hit, 2, 0
817, 6, T_Sinc, T_Sinc_DGLG, 380.9, hit, 1, 0
818, 6, T_Sinc, T_Sinc_DGLG, 256.3, hit, 1, 0
819, 6, T_Sinc, T_Sinc_DGLG, 275.8, hit, 1, 0
820, 6, T_Sinc, T_Sinc_DGLG, 259.2, hit, 1, 0
821, 6, T_Sinc, T_Sinc_DGLG, 266.7, hit, 1, 0
822, 6, T_Scon, T_Scon_UGLG, 342.1, hit, 1, 0
823, 6, T_Scon, T_Scon_DRRR, 465.5, hit, 2, 0
824, 6, T_Scon, T_Scon_UGLG, 516.9, hit, 1, 0
825, 6, T_Scon, T_Scon_DRRR, 456.4, hit, 2, 0
826, 6, T_Sinc, T_Sinc_DGLG, 455.8, hit, 1, 0
827, 6, T_Scon, T_Scon_UGLG, 323.3, hit, 1, 0
828, 6, T_Sinc, T_Sinc_URRR, 310.7, incorrect, 1, 1
829, 6, T_Sinc, T_Sinc_URRR, 621.9, hit, 2, 0
830, 6, T_Sinc, T_Sinc_URRR, 285.3, hit, 2, 0
831, 6, T_Sinc, T_Sinc_URRR, 328.7, hit, 2, 0
832, 6, T_Sinc, T_Sinc_URRR, 372.2, hit, 2, 0
833, 6, T_Sinc, T_Sinc_URRR, 231.6, hit, 2, 0
834, 6, T_Sinc, T_Sinc_DGLG, 363.1, hit, 1, 0
835, 6, T_Sinc, T_Sinc_URRR, 374.5, hit, 2, 0
836, 6, T_Scon, T_Scon_UGLG, 410.0, hit, 1, 0
837, 6, T_Scon, T_Scon_UGLG, 329.3, hit, 1, 0
838, 6, T_Sinc, T_Sinc_DGLG, 356.8, hit, 1, 0
839, 6, T_Scon, T_Scon_DRRR, 416.2, hit, 2, 0
840, 6, T_Scon, T_Scon_UGLG, 483.7, hit, 1, 0
841, 6, T_Sinc, T_Sinc_DGLG, 339.1, hit, 1, 0
842, 6, T_Sinc, T_Sinc_DGLG, 294.6, hit, 1, 0
843, 6, T_Sinc, T_Sinc_DGLG, 334.0, hit, 1, 0
844, 6, T_Sinc, T_Sinc_DGLG, 261.5, hit, 1, 0
845, 6, T_Sinc, T_Sinc_URRR, 448.9, hit, 2, 0
846, 6, T_Scon, T_Scon_DRRR, 324.3, hit, 2, 0
847, 6, T_Scon, T_Scon_DRRR, 235.7, hit, 2, 0
848, 6, T_Sinc, T_Sinc_URRR, 451.2, hit, 2, 0
849, 6, T_Sinc, T_Sinc_URRR, 222.6, hit, 2, 0
850, 6, T_Scon, T_Scon_UGLG, 362.0, hit, 1, 0
851, 6, T_Sinc, T_Sinc_DGLG, 357.5, hit, 1, 0
852, 6, T_Sinc, T_Sinc_URRR, 456.9, hit, 2, 0
853, 6, T_Sinc, T_Sinc_DGLG, 368.4, hit, 1, 0
854, 6, T_Sinc, T_Sinc_DGLG, 331.8, hit, 1, 0
855, 6, T_Sinc, T_Sinc_DGLG, 259.3, hit, 1, 0
856, 6, T_Sinc, T_Sinc_DGLG, 318.7, hit, 1, 0
857, 6, T_Sinc, T_Sinc_URRR, 458.1, hit, 2, 0
858, 6, T_Sinc, T_Sinc_URRR, 285.5, hit, 2, 0
859, 6, T_Sinc, T_Sinc_DGLG, 341.0, hit, 1, 0
860, 6, T_Scon, T_Scon_UGLG, 332.4, hit, 1, 0
861, 6, T_Sinc, T_Sinc_URRR, 403.9, hit, 2, 0
862, 6, T_Sinc, T_Sinc_URRR, 287.3, hit, 2, 0
863, 6, T_Sinc, T_Sinc_URRR, 298.8, hit, 2, 0
864, 6, T_Scon, T_Scon_UGLG, 374.2, hit, 1, 0
865, 7, T_Scon, T_Scon_UGLG, 426.3, hit, 1, 0
866, 7, T_Scon, T_Scon_DRRR, 365.8, hit, 2, 0
867, 7, T_Scon, T_Scon_DRRR, 281.2, hit, 2, 0
868, 7, T_Scon, T_Scon_UGLG, 300.7, hit, 1, 0
869, 7, T_Scon, T_Scon_UGLG, 200.0, hit, 1, 0
870, 7, T_Sinc, T_Sinc_DGLG, 387.5, hit, 1, 0
871, 7, T_Scon, T_Scon_DRRR, 410.9, hit, 2, 0
872, 7, T_Scon, T_Scon_UGLG, 326.3, hit, 1, 0
873, 7, T_Scon, T_Scon_UGLG, 241.8, hit, 1, 0
874, 7, T_Scon, T_Scon_DRRR, 389.2, hit, 2, 0
875, 7, T_Scon, T_Scon_DRRR, 340.7, incorrect, 1, 1
876, 7, T_Sinc, T_Sinc_URRR, 392.1, hit, 2, 0
877, 7, T_Scon, T_Scon_UGLG, 371.6, hit, 1, 0
878, 7, T_Scon, T_Scon_DRRR, 387.0, hit, 2, 0
879, 7, T_Scon, T_Scon_DRRR, 282.5, hit, 2, 0
880, 7, T_Scon, T_Scon_UGLG, 317.9, hit, 1, 0
881, 7, T_Scon, T_Scon_UGLG, 433.3, hit, 1, 0
882, 7, T_Scon, T_Scon_UGLG, 260.7, hit, 1, 0
883, 7, T_Scon, T_Scon_DRRR, 424.2, hit, 2, 0
884, 7, T_Scon, T_Scon_DRRR, 411.6, hit, 2, 0
885, 7, T_Scon, T_Scon_UGLG, 299.1, hit, 1, 0
886, 7, T_Scon, T_Scon_UGLG, 210.5, hit, 1, 0
887, 7, T_Scon, T_Scon_DRRR, 369.9, hit, 2, 0
888, 7, T_Scon, T_Scon_UGLG, 297.4, hit, 1, 0
889, 7, T_Scon, T_Scon_DRRR, 500.8, hit, 2, 0
890, 7, T_Scon, T_Scon_DRRR, 300.3, hit, 2, 0
891, 7, T_Scon, T_Scon_UGLG, 319.7, hit, 1, 0
892, 7, T_Scon, T_Scon_DRRR, 583.2, hit, 2, 0
893, 7, T_Scon, T_Scon_UGLG, 326.5, hit, 1, 0
894, 7, T_Scon, T_Scon_DRRR, 382.0, hit, 2, 0
895, 7, T_Scon, T_Scon_DRRR, 329.4, hit, 2, 0
896, 7, T_Sinc, T_Sinc_URRR, 316.9, hit, 2, 0
897, 7, T_Scon, T_Scon_DRRR, 308.3, hit, 2, 0
898, 7, T_Sinc, T_Sinc_DGLG, 343.8, hit, 1, 0
899, 7, T_Sinc, T_Sinc_URRR, 443.2, hit, 2, 0
900, 7, T_Scon, T_Scon_DRRR, 442.7, hit, 2, 0
901, 7, T_Scon, T_Scon_DRRR, 449.8, hit, 2, 0
902, 7, T_Scon, T_Scon_UGLG, 301.2, hit, 1, 0
903, 7, T_Scon, T_Scon_UGLG, 272.7, hit, 1, 0
904, 7, T_Scon, T_Scon_UGLG, 220.1, hit, 1, 0
905, 7, T_Scon, T_Scon_DRRR, 423.6, hit, 2, 0
906, 7, T_Sinc, T_Sinc_URRR, 318.9, hit, 2, 0
907, 7, T_Sinc, T_Sinc_URRR, 514.4, hit, 2, 0
908, 7, T_Scon, T_Scon_UGLG, 385.8, hit, 1, 0
909, 7, T_Sinc, T_Sinc_DGLG, 365.3, hit, 1, 0
910, 7, T_Sinc, T_Sinc_URRR, 408.7, hit, 2, 0
911, 7, T_Scon, T_Scon_UGLG, 380.2, hit, 1, 0
912, 7, T_Scon, T_Scon_DRRR, 367.6, hit, 2, 0
913, 7, T_Sinc, T_Sinc_URRR, 263.1, hit, 2, 0
914, 7, T_Sinc, T_Sinc_URRR, 210.5, hit, 2, 0
915, 7, T_Scon, T_Scon_UGLG, 345.9, hit, 1, 0
916, 7, T_Scon, T_Scon_UGLG, 325.3, hit, 1, 0
917, 7, T_Scon, T_Scon_UGLG, 248.7, hit, 1, 0
918, 7, T_Scon, T_Scon_UGLG, 284.2, hit, 1, 0
919, 7, T_Scon, T_Scon_DRRR, 383.6, hit, 2, 0
920, 7, T_Sinc, T_Sinc_DGLG, 483.1, hit, 1, 0
921, 7, T_Scon, T_Scon_DRRR, 430.5, hit, 2, 0
922, 7, T_Scon, T_Scon_UGLG, 390.0, hit, 1, 0
923, 7, T_Scon, T_Scon_UGLG, 265.4, hit, 1, 0
924, 7, T_Scon, T_Scon_UGLG, 228.9, hit, 1, 0
925, 7, T_Scon, T_Scon_UGLG, 212.3, hit, 1, 0
926, 7, T_Scon, T_Scon_UGLG, 223.8, hit, 1, 0
927, 7, T_Scon, T_Scon_UGLG, 243.1, hit, 1, 0
928, 7, T_Sinc, T_Sinc_URRR, 446.6, hit, 2, 0
929, 7, T_Sinc, T_Sinc_DGLG, 338.0, hit, 1, 0
930, 7, T_Scon, T_Scon_UGLG, 521.5, hit, 1, 0
931, 7, T_Scon, T_Scon_DRRR, 360.9, hit, 2, 0
932, 7, T_Scon, T_Scon_DRRR, 440.4, hit, 2, 0
933, 7, T_Scon, T_Scon_DRRR, 311.8, hit, 2, 0
934, 7, T_Sinc, T_Sinc_URRR, 387.3, hit, 2, 0
935, 7, T_Sinc, T_Sinc_URRR, 294.7, hit, 2, 0
936, 7, T_Scon, T_Scon_UGLG, 370.1, hit, 1, 0
937, 7, T_Scon, T_Scon_DRRR, 485.3, hit, 2, 0
938, 7, T_Sinc, T_Sinc_DGLG, 400.8, hit, 1, 0
939, 7, T_Scon, T_Scon_UGLG, 340.2, hit, 1, 0
940, 7, T_Scon, T_Scon_DRRR, 383.6, hit, 2, 0
941, 7, T_Scon, T_Scon_DRRR, 339.0, hit, 2, 0
942, 7, T_Sinc, T_Sinc_DGLG, 258.4, incorrect, 2, 1
943, 7, T_Scon, T_Scon_UGLG, 297.9, hit, 1, 0
944, 7, T_Scon, T_Scon_UGLG, 237.3, hit, 1, 0
945, 7, T_Scon, T_Scon_DRRR, 856.7, hit, 2, 2
946, 7, T_Scon, T_Scon_DRRR, 292.2, hit, 2, 0
947, 7, T_Scon, T_Scon_UGLG, 347.6, hit, 1, 0
948, 7, T_Scon, T_Scon_DRRR, 487.1, hit, 2, 0
949, 7, T_Sinc, T_Sinc_DGLG, 506.5, hit, 1, 0
950, 7, T_Scon, T_Scon_DRRR, 378.0, hit, 2, 0
951, 7, T_Sinc, T_Sinc_URRR, 389.4, hit, 2, 0
952, 7, T_Scon, T_Scon_DRRR, 300.8, hit, 2, 0
953, 7, T_Scon, T_Scon_UGLG, 400.2, hit, 1, 0
954, 7, T_Scon, T_Scon_DRRR, 379.7, hit, 2, 0
955, 7, T_Sinc, T_Sinc_DGLG, 367.1, incorrect, 2, 1
956, 7, T_Scon, T_Scon_DRRR, 386.6, hit, 2, 0
957, 7, T_Scon, T_Scon_DRRR, 278.0, hit, 2, 0
958, 7, T_Sinc, T_Sinc_DGLG, 373.5, hit, 1, 0
959, 7, T_Scon, T_Scon_UGLG, 400.9, hit, 1, 0
960, 7, T_Scon, T_Scon_DRRR, 476.4, hit, 2, 0
961, 7, T_Scon, T_Scon_DRRR, 411.8, hit, 2, 0
962, 7, T_Sinc, T_Sinc_DGLG, 355.3, incorrect, 2, 1
963, 7, T_Scon, T_Scon_UGLG, 478.7, hit, 1, 0
964, 7, T_Sinc, T_Sinc_DGLG, 362.0, hit, 1, 0
965, 7, T_Sinc, T_Sinc_URRR, 429.5, hit, 2, 0
966, 7, T_Sinc, T_Sinc_URRR, 312.9, hit, 2, 0
967, 7, T_Scon, T_Scon_DRRR, 436.4, hit, 2, 0
968, 7, T_Scon, T_Scon_UGLG, 311.8, hit, 1, 0
969, 7, T_Sinc, T_Sinc_URRR, 475.3, hit, 2, 0
970, 7, T_Scon, T_Scon_UGLG, 410.7, hit, 1, 0
971, 7, T_Scon, T_Scon_UGLG, 522.2, hit, 1, 0
972, 7, T_Scon, T_Scon_UGLG, 277.6, hit, 1, 0
973, 7, T_Scon, T_Scon_DRRR, 504.8, hit, 2, 0
974, 7, T_Scon, T_Scon_UGLG, 404.2, hit, 1, 0
975, 7, T_Sinc, T_Sinc_URRR, 407.7, hit, 2, 0
976, 7, T_Scon, T_Scon_UGLG, 379.1, hit, 1, 0
977, 7, T_Scon, T_Scon_UGLG, 310.5, hit, 1, 0
978, 7, T_Sinc, T_Sinc_DGLG, 429.9, hit, 1, 0
979, 7, T_Scon, T_Scon_DRRR, 401.3, hit, 2, 0
980, 7, T_Scon, T_Scon_UGLG, 320.8, hit, 1, 0
981, 7, T_Scon, T_Scon_UGLG, 252.2, hit, 1, 0
982, 7, T_Scon, T_Scon_UGLG, 247.7, hit, 1, 0
983, 7, T_Scon, T_Scon_UGLG, 279.1, hit, 1, 0
984, 7, T_Scon, T_Scon_DRRR, 398.6, hit, 2, 0
985, 7, T_Scon, T_Scon_DRRR, 326.0, hit, 2, 0
986, 7, T_Sinc, T_Sinc_DGLG, 409.5, hit, 1, 0
987, 7, T_Sinc, T_Sinc_DGLG, 364.9, hit, 1, 0
988, 7, T_Scon, T_Scon_DRRR, 448.4, hit, 2, 0
989, 7, T_Scon, T_Scon_DRRR, 299.8, hit, 2, 0
990, 7, T_Sinc, T_Sinc_DGLG, 431.2, hit, 1, 0
991, 7, T_Scon, T_Scon_DRRR, 490.6, hit, 2, 0
992, 7, T_Scon, T_Scon_DRRR, 334.1, hit, 2, 0
993, 7, T_Scon, T_Scon_UGLG, 341.5, hit, 1, 0
994, 7, T_Scon, T_Scon_UGLG, 257.0, hit, 1, 0
995, 7, T_Scon, T_Scon_DRRR, 408.4, hit, 2, 0
996, 7, T_Scon, T_Scon_DRRR, 395.8, hit, 2, 0
997, 7, T_Scon, T_Scon_UGLG, 351.3, hit, 1, 0
998, 7, T_Scon, T_Scon_DRRR, 546.7, hit, 2, 0
999, 7, T_Sinc, T_Sinc_DGLG, 442.2, hit, 1, 0
1000, 7, T_Sinc, T_Sinc_URRR, 357.6, hit, 2, 0
1001, 7, T_Sinc, T_Sinc_DGLG, 365.0, hit, 1, 0
1002, 7, T_Scon, T_Scon_UGLG, 352.4, hit, 1, 0
1003, 7, T_Scon, T_Scon_DRRR, 371.9, hit, 2, 0
1004, 7, T_Scon, T_Scon_DRRR, 347.3, hit, 2, 0
1005, 7, T_Scon, T_Scon_DRRR, 334.8, hit, 2, 0
1006, 7, T_Scon, T_Scon_UGLG, 330.2, hit, 1, 0
1007, 7, T_Scon, T_Scon_DRRR, 421.7, hit, 2, 0
1008, 7, T_Sinc, T_Sinc_URRR, 333.1, hit, 2, 0
1009, 8, T_Scon, T_Scon_DRRR, 460.1, hit, 2, 0
1010, 8, T_Sinc, T_Sinc_URRR, 447.5, hit, 2, 0
1011, 8, T_Sinc, T_Sinc_URRR, 282.9, hit, 2, 0
1012, 8, T_Scon, T_Scon_DRRR, 314.3, hit, 2, 0
1013, 8, T_Scon, T_Scon_UGLG, 341.8, hit, 1, 0
1014, 8, T_Scon, T_Scon_DRRR, 377.2, hit, 2, 0
1015, 8, T_Scon, T_Scon_DRRR, 408.7, incorrect, 1, 1
1016, 8, T_Scon, T_Scon_UGLG, 320.1, hit, 1, 0
1017, 8, T_Scon, T_Scon_UGLG, 299.6, hit, 1, 0
1018, 8, T_Scon, T_Scon_UGLG, 255.0, hit, 1, 0
1019, 8, T_Sinc, T_Sinc_DGLG, 382.5, hit, 1, 0
1020, 8, T_Scon, T_Scon_DRRR, 405.9, hit, 2, 0
1021, 8, T_Scon, T_Scon_DRRR, 313.4, hit, 2, 0
1022, 8, T_Scon, T_Scon_UGLG, 332.7, hit, 1, 0
1023, 8, T_Sinc, T_Sinc_DGLG, 320.2, hit, 1, 0
1024, 8, T_Scon, T_Scon_UGLG, 275.7, hit, 1, 0
1025, 8, T_Scon, T_Scon_DRRR, 447.1, hit, 2, 0
1026, 8, T_Scon, T_Scon_UGLG, 438.5, hit, 1, 0
1027, 8, T_Scon, T_Scon_UGLG, 274.0, hit, 1, 0
1028, 8, T_Scon, T_Scon_DRRR, 613.4, hit, 2, 0
1029, 8, T_Scon, T_Scon_UGLG, 348.9, hit, 1, 0
1030, 8, T_Scon, T_Scon_DRRR, 496.2, hit, 2, 0
1031, 8, T_Scon, T_Scon_DRRR, 371.7, hit, 2, 0
1032, 8, T_Sinc, T_Sinc_URRR, 323.1, hit, 2, 0
1033, 8, T_Scon, T_Scon_DRRR, 282.6, hit, 2, 0
1034, 8, T_Scon, T_Scon_DRRR, 314.0, hit, 2, 0
1035, 8, T_Scon, T_Scon_UGLG, 369.4, hit, 1, 0
1036, 8, T_Scon, T_Scon_UGLG, 292.9, hit, 1, 0
1037, 8, T_Scon, T_Scon_UGLG, 272.3, hit, 1, 0
1038, 8, T_Scon, T_Scon_UGLG, 259.8, hit, 1, 0
1039, 8, T_Scon, T_Scon_DRRR, 403.2, hit, 2, 0
1040, 8, T_Scon, T_Scon_DRRR, 326.6, hit, 2, 0
1041, 8, T_Scon, T_Scon_UGLG, 354.0, hit, 1, 0
1042, 8, T_Scon, T_Scon_DRRR, 493.5, hit, 2, 0
1043, 8, T_Scon, T_Scon_UGLG, 392.9, hit, 1, 0
1044, 8, T_Scon, T_Scon_DRRR, 436.4, hit, 2, 0
1045, 8, T_Scon, T_Scon_UGLG, 371.5, hit, 1, 0
1046, 8, T_Scon, T_Scon_UGLG, 254.9, hit, 1, 0
1047, 8, T_Scon, T_Scon_UGLG, 266.4, hit, 1, 0
1048, 8, T_Scon, T_Scon_DRRR, 397.9, hit, 2, 0
1049, 8, T_Sinc, T_Sinc_DGLG, 353.3, hit, 1, 0
1050, 8, T_Scon, T_Scon_UGLG, 336.7, hit, 1, 0
1051, 8, T_Scon, T_Scon_DRRR, 384.2, hit, 2, 0
1052, 8, T_Scon, T_Scon_DRRR, 295.6, hit, 2, 0
1053, 8, T_Scon, T_Scon_UGLG, 283.1, hit, 1, 0
1054, 8, T_Scon, T_Scon_DRRR, 378.4, hit, 2, 0
1055, 8, T_Sinc, T_Sinc_DGLG, 509.9, hit, 1, 0
1056, 8, T_Sinc, T_Sinc_URRR, 401.3, hit, 2, 0
1057, 8, T_Scon, T_Scon_DRRR, 388.8, hit, 2, 0
1058, 8, T_Scon, T_Scon_UGLG, 392.2, hit, 1, 0
1059, 8, T_Sinc, T_Sinc_DGLG, 311.7, hit, 1, 0
1060, 8, T_Scon, T_Scon_DRRR, 451.1, hit, 2, 0
1061, 8, T_Scon, T_Scon_UGLG, 294.6, hit, 1, 0
1062, 8, T_Scon, T_Scon_UGLG, 298.0, hit, 1, 0
1063, 8, T_Scon, T_Scon_DRRR, 469.4, hit, 2, 0
1064, 8, T_Scon, T_Scon_DRRR, 356.9, hit, 2, 0
1065, 8, T_Scon, T_Scon_UGLG, 416.3, hit, 1, 0
1066, 8, T_Sinc, T_Sinc_DGLG, 339.7, hit, 1, 0
1067, 8, T_Scon, T_Scon_DRRR, 327.1, hit, 2, 0
1068, 8, T_Scon, T_Scon_DRRR, 410.6, hit, 2, 0
1069, 8, T_Scon, T_Scon_UGLG, 326.0, hit, 1, 0
1070, 8, T_Scon, T_Scon_UGLG, 273.5, hit, 1, 0
1071, 8, T_Scon, T_Scon_DRRR, 276.9, hit, 2, 0
1072, 8, T_Sinc, T_Sinc_DGLG, 400.4, hit, 1, 0
1073, 8, T_Scon, T_Scon_DRRR, 311.8, hit, 2, 0
1074, 8, T_Scon, T_Scon_UGLG, 263.3, hit, 1, 0
1075, 8, T_Sinc, T_Sinc_URRR, 398.7, hit, 2, 0
1076, 8, T_Scon, T_Scon_UGLG, 322.2, hit, 1, 0
1077, 8, T_Scon, T_Scon_DRRR, 449.6, hit, 2, 0
1078, 8, T_Sinc, T_Sinc_DGLG, 309.0, hit, 1, 0
1079, 8, T_Sinc, T_Sinc_URRR, 408.5, hit, 2, 0
1080, 8, T_Sinc, T_Sinc_URRR, 291.9, hit, 2, 0
1081, 8, T_Scon, T_Scon_DRRR, 523.1, hit, 2, 0
1082, 8, T_Scon, T_Scon_UGLG, 390.5, hit, 1, 0
1083, 8, T_Scon, T_Scon_DRRR, 433.9, hit, 2, 0
1084, 8, T_Scon, T_Scon_DRRR, 365.4, hit, 2, 0
1085, 8, T_Sinc, T_Sinc_URRR, 252.9, hit, 2, 0
1086, 8, T_Scon, T_Scon_DRRR, 292.3, hit, 2, 0
1087, 8, T_Scon, T_Scon_DRRR, 315.7, hit, 2, 0
1088, 8, T_Sinc, T_Sinc_URRR, 239.2, hit, 2, 0
1089, 8, T_Scon, T_Scon_UGLG, 342.5, hit, 1, 0
1090, 8, T_Scon, T_Scon_UGLG, 270.0, hit, 1, 0
1091, 8, T_Sinc, T_Sinc_DGLG, 301.4, hit, 1, 0
1092, 8, T_Scon, T_Scon_UGLG, 236.9, hit, 1, 0
1093, 8, T_Scon, T_Scon_DRRR, 388.3, hit, 2, 0
1094, 8, T_Scon, T_Scon_DRRR, 439.8, hit, 2, 0
1095, 8, T_Scon, T_Scon_DRRR, 379.2, hit, 2, 0
1096, 8, T_Sinc, T_Sinc_DGLG, 430.7, hit, 1, 0
1097, 8, T_Sinc, T_Sinc_DGLG, 322.1, hit, 1, 0
1098, 8, T_Scon, T_Scon_UGLG, 325.6, hit, 1, 0
1099, 8, T_Sinc, T_Sinc_URRR, 436.9, hit, 2, 0
1100, 8, T_Scon, T_Scon_UGLG, 380.4, hit, 1, 0
1101, 8, T_Scon, T_Scon_DRRR, 391.8, hit, 2, 0
1102, 8, T_Scon, T_Scon_DRRR, 387.2, hit, 2, 0
1103, 8, T_Scon, T_Scon_UGLG, 454.7, hit, 1, 0
1104, 8, T_Sinc, T_Sinc_DGLG, 338.1, hit, 1, 0
1105, 8, T_Scon, T_Scon_UGLG, 265.6, hit, 1, 0
1106, 8, T_Sinc, T_Sinc_DGLG, 437.0, hit, 1, 0
1107, 8, T_Sinc, T_Sinc_URRR, 372.5, hit, 2, 0
1108, 8, T_Scon, T_Scon_DRRR, 347.9, incorrect, 1, 1
1109, 8, T_Scon, T_Scon_DRRR, 431.4, hit, 2, 0
1110, 8, T_Scon, T_Scon_UGLG, 570.7, hit, 1, 0
1111, 8, T_Scon, T_Scon_UGLG, 414.2, hit, 1, 0
1112, 8, T_Scon, T_Scon_UGLG, 257.6, hit, 1, 0
1113, 8, T_Scon, T_Scon_UGLG, 249.1, hit, 1, 0
1114, 8, T_Scon, T_Scon_UGLG, 276.5, hit, 1, 0
1115, 8, T_Scon, T_Scon_DRRR, 464.0, hit, 2, 0
1116, 8, T_Sinc, T_Sinc_URRR, 419.4, hit, 2, 0
1117, 8, T_Scon, T_Scon_DRRR, 502.6, hit, 2, 0
1118, 8, T_Sinc, T_Sinc_DGLG, 382.0, hit, 1, 0
1119, 8, T_Scon, T_Scon_UGLG, 281.5, hit, 1, 0
1120, 8, T_Scon, T_Scon_DRRR, 420.9, hit, 2, 0
1121, 8, T_Scon, T_Scon_UGLG, 352.3, hit, 1, 0
1122, 8, T_Scon, T_Scon_UGLG, 283.8, hit, 1, 0
1123, 8, T_Scon, T_Scon_DRRR, 631.1, hit, 2, 0
1124, 8, T_Scon, T_Scon_UGLG, 402.6, hit, 1, 0
1125, 8, T_Scon, T_Scon_UGLG, 398.0, hit, 1, 0
1126, 8, T_Scon, T_Scon_DRRR, 341.5, hit, 2, 0
1127, 8, T_Scon, T_Scon_UGLG, 344.9, hit, 1, 0
1128, 8, T_Sinc, T_Sinc_DGLG, 308.4, hit, 1, 0
1129, 8, T_Sinc, T_Sinc_DGLG, 259.8, hit, 1, 0
1130, 8, T_Scon, T_Scon_UGLG, 283.3, hit, 1, 0
1131, 8, T_Scon, T_Scon_DRRR, 382.6, hit, 2, 0
1132, 8, T_Scon, T_Scon_DRRR, 310.1, hit, 2, 0
1133, 8, T_Scon, T_Scon_DRRR, 301.5, hit, 2, 0
1134, 8, T_Scon, T_Scon_DRRR, 273.0, hit, 2, 0
1135, 8, T_Scon, T_Scon_DRRR, 292.4, hit, 2, 0
1136, 8, T_Scon, T_Scon_DRRR, 219.9, hit, 2, 0
1137, 8, T_Scon, T_Scon_UGLG, 343.3, hit, 1, 0
1138, 8, T_Scon, T_Scon_UGLG, 294.8, hit, 1, 0
1139, 8, T_Sinc, T_Sinc_URRR, 374.2, hit, 2, 0
1140, 8, T_Sinc, T_Sinc_URRR, 297.6, hit, 2, 0
1141, 8, T_Sinc, T_Sinc_URRR, 225.0, hit, 2, 0
1142, 8, T_Sinc, T_Sinc_URRR, 244.4, hit, 2, 0
1143, 8, T_Scon, T_Scon_UGLG, 247.9, incorrect, 2, 1
1144, 8, T_Scon, T_Scon_UGLG, 251.3, hit, 1, 0
1145, 8, T_Sinc, T_Sinc_URRR, 238.8, incorrect, 1, 1
1146, 8, T_Scon, T_Scon_UGLG, 554.2, hit, 1, 0
1147, 8, T_Scon, T_Scon_UGLG, 349.7, hit, 1, 0
1148, 8, T_Scon, T_Scon_DRRR, 401.1, hit, 2, 0
1149, 8, T_Sinc, T_Sinc_DGLG, 436.6, hit, 1, 0
1150, 8, T_Scon, T_Scon_DRRR, 380.0, hit, 2, 0
1151, 8, T_Sinc, T_Sinc_DGLG, 447.5, hit, 1, 0
1152, 8, T_Sinc, T_Sinc_URRR, 338.9, hit, 2, 0
1153, 9, T_Scon, T_Scon_UGLG, 323.1, hit, 1, 0
1154, 9, T_Scon, T_Scon_DRRR, 346.6, hit, 2, 0
1155, 9, T_Scon, T_Scon_DRRR, 342.0, hit, 2, 0
1156, 9, T_Scon, T_Scon_UGLG, 341.4, hit, 1, 0
1157, 9, T_Scon, T_Scon_DRRR, 428.9, hit, 2, 0
1158, 9, T_Scon, T_Scon_DRRR, 328.3, hit, 2, 0
1159, 9, T_Scon, T_Scon_DRRR, 243.7, hit, 2, 0
1160, 9, T_Sinc, T_Sinc_DGLG, 447.2, hit, 1, 0
1161, 9, T_Scon, T_Scon_DRRR, 414.7, hit, 2, 0
1162, 9, T_Scon, T_Scon_UGLG, 346.1, hit, 1, 0
1163, 9, T_Scon, T_Scon_DRRR, 401.5, hit, 2, 0
1164, 9, T_Scon, T_Scon_UGLG, 341.0, hit, 1, 0
1165, 9, T_Sinc, T_Sinc_DGLG, 328.5, hit, 1, 0
1166, 9, T_Scon, T_Scon_DRRR, 383.8, hit, 2, 0
1167, 9, T_Scon, T_Scon_UGLG, 343.2, hit, 1, 0
1168, 9, T_Scon, T_Scon_DRRR, 386.7, hit, 2, 0
1169, 9, T_Scon, T_Scon_UGLG, 342.1, hit, 1, 0
1170, 9, T_Sinc, T_Sinc_URRR, 401.6, hit, 2, 0
1171, 9, T_Scon, T_Scon_DRRR, 381.0, hit, 2, 0
1172, 9, T_Scon, T_Scon_DRRR, 300.4, hit, 2, 0
1173, 9, T_Scon, T_Scon_UGLG, 351.9, hit, 1, 0
1174, 9, T_Scon, T_Scon_DRRR, 367.4, hit, 2, 0
1175, 9, T_Scon, T_Scon_UGLG, 362.8, hit, 1, 0
1176, 9, T_Sinc, T_Sinc_URRR, 542.2, hit, 2, 0
1177, 9, T_Scon, T_Scon_UGLG, 389.7, hit, 1, 0
1178, 9, T_Scon, T_Scon_UGLG, 321.1, hit, 1, 0
1179, 9, T_Sinc, T_Sinc_DGLG, 324.5, hit, 1, 0
1180, 9, T_Sinc, T_Sinc_URRR, 367.9, hit, 2, 0
1181, 9, T_Scon, T_Scon_DRRR, 451.4, hit, 2, 0
1182, 9, T_Scon, T_Scon_UGLG, 554.8, hit, 1, 0
1183, 9, T_Scon, T_Scon_DRRR, 422.3, hit, 2, 0
1184, 9, T_Scon, T_Scon_UGLG, 409.7, hit, 1, 0
1185, 9, T_Scon, T_Scon_UGLG, 301.1, hit, 1, 0
1186, 9, T_Scon, T_Scon_UGLG, 264.5, hit, 1, 0
1187, 9, T_Scon, T_Scon_UGLG, 276.0, hit, 1, 0
1188, 9, T_Scon, T_Scon_UGLG, 295.4, hit, 1, 0
1189, 9, T_Scon, T_Scon_DRRR, 502.6, hit, 2, 0
1190, 9, T_Scon, T_Scon_DRRR, 286.0, hit, 2, 0
1191, 9, T_Scon, T_Scon_DRRR, 257.5, hit, 2, 0
1192, 9, T_Scon, T_Scon_UGLG, 296.9, hit, 1, 0
1193, 9, T_Scon, T_Scon_UGLG, 248.3, hit, 1, 0
1194, 9, T_Scon, T_Scon_DRRR, 335.8, hit, 2, 0
1195, 9, T_Sinc, T_Sinc_URRR, 279.2, hit, 2, 0
1196, 9, T_Scon, T_Scon_DRRR, 270.7, hit, 2, 0
1197, 9, T_Scon, T_Scon_UGLG, 466.1, hit, 1, 0
1198, 9, T_Scon, T_Scon_UGLG, 341.6, hit, 1, 0
1199, 9, T_Scon, T_Scon_DRRR, 356.9, hit, 2, 0
1200, 9, T_Sinc, T_Sinc_URRR, 328.4, hit, 2, 0
1201, 9, T_Sinc, T_Sinc_DGLG, 371.8, hit, 1, 0
1202, 9, T_Scon, T_Scon_UGLG, 267.3, hit, 1, 0
1203, 9, T_Scon, T_Scon_DRRR, 390.7, hit, 2, 0
1204, 9, T_Scon, T_Scon_DRRR, 410.2, hit, 2, 0
1205, 9, T_Scon, T_Scon_DRRR, 289.6, hit, 2, 0
1206, 9, T_Scon, T_Scon_UGLG, 337.1, hit, 1, 0
1207, 9, T_Sinc, T_Sinc_DGLG, 364.5, hit, 1, 0
1208, 9, T_Scon, T_Scon_UGLG, 304.0, hit, 1, 0
1209, 9, T_Scon, T_Scon_UGLG, 291.4, hit, 1, 0
1210, 9, T_Sinc, T_Sinc_DGLG, 326.8, hit, 1, 0
1211, 9, T_Scon, T_Scon_DRRR, 378.2, hit, 2, 0
1212, 9, T_Scon, T_Scon_DRRR, 293.7, hit, 2, 0
1213, 9, T_Sinc, T_Sinc_DGLG, 325.1, hit, 1, 0
1214, 9, T_Scon, T_Scon_DRRR, 384.6, hit, 2, 0
1215, 9, T_Scon, T_Scon_UGLG, 332.0, hit, 1, 0
1216, 9, T_Scon, T_Scon_DRRR, 511.4, hit, 2, 0
1217, 9, T_Scon, T_Scon_UGLG, 298.9, hit, 1, 0
1218, 9, T_Sinc, T_Sinc_URRR, 386.3, hit, 2, 0
1219, 9, T_Sinc, T_Sinc_DGLG, 381.8, hit, 1, 0
1220, 9, T_Scon, T_Scon_UGLG, 601.2, hit, 1, 0
1221, 9, T_Scon, T_Scon_UGLG, 276.6, hit, 1, 0
1222, 9, T_Scon, T_Scon_DRRR, 544.0, hit, 2, 0
1223, 9, T_Sinc, T_Sinc_DGLG, 459.5, hit, 1, 0
1224, 9, T_Scon, T_Scon_DRRR, 378.9, hit, 2, 0
1225, 9, T_Scon, T_Scon_UGLG, 410.1, hit, 1, 0
1226, 9, T_Sinc, T_Sinc_URRR, 385.5, hit, 2, 0
1227, 9, T_Scon, T_Scon_DRRR, 336.9, hit, 2, 0
1228, 9, T_Scon, T_Scon_UGLG, 380.4, hit, 1, 0
1229, 9, T_Scon, T_Scon_DRRR, 355.8, hit, 2, 0
1230, 9, T_Scon, T_Scon_UGLG, 327.3, hit, 1, 0
1231, 9, T_Scon, T_Scon_DRRR, 362.7, hit, 2, 0
1232, 9, T_Scon, T_Scon_DRRR, 294.2, hit, 2, 0
1233, 9, T_Sinc, T_Sinc_URRR, 293.6, hit, 2, 0
1234, 9, T_Scon, T_Scon_UGLG, 409.0, hit, 1, 0
1235, 9, T_Scon, T_Scon_DRRR, 348.5, incorrect, 1, 1
1236, 9, T_Scon, T_Scon_UGLG, 376.0, hit, 1, 0
1237, 9, T_Scon, T_Scon_UGLG, 359.4, hit, 1, 0
1238, 9, T_Scon, T_Scon_UGLG, 250.9, hit, 1, 0
1239, 9, T_Sinc, T_Sinc_DGLG, 362.2, hit, 1, 0
1240, 9, T_Scon, T_Scon_DRRR, 445.6, hit, 2, 0
1241, 9, T_Sinc, T_Sinc_URRR, 305.1, hit, 2, 0
1242, 9, T_Sinc, T_Sinc_URRR, 308.6, hit, 2, 0
1243, 9, T_Sinc, T_Sinc_URRR, 272.0, hit, 2, 0
1244, 9, T_Scon, T_Scon_DRRR, 339.4, hit, 2, 0
1245, 9, T_Scon, T_Scon_UGLG, 358.9, hit, 1, 0
1246, 9, T_Scon, T_Scon_DRRR, 546.3, hit, 2, 0
1247, 9, T_Scon, T_Scon_DRRR, 357.8, hit, 2, 0
1248, 9, T_Sinc, T_Sinc_URRR, 265.1, hit, 2, 0
1249, 9, T_Sinc, T_Sinc_URRR, 320.6, hit, 2, 0
1250, 9, T_Scon, T_Scon_DRRR, 304.0, hit, 2, 0
1251, 9, T_Scon, T_Scon_DRRR, 331.5, hit, 2, 0
1252, 9, T_Scon, T_Scon_DRRR, 326.9, hit, 2, 0
1253, 9, T_Scon, T_Scon_DRRR, 290.4, hit, 2, 0
1254, 9, T_Scon, T_Scon_DRRR, 261.8, hit, 2, 0
1255, 9, T_Scon, T_Scon_UGLG, 313.3, hit, 1, 0
1256, 9, T_Scon, T_Scon_UGLG, 252.7, hit, 1, 0
1257, 9, T_Sinc, T_Sinc_URRR, 400.2, hit, 2, 0
1258, 9, T_Scon, T_Scon_UGLG, 387.6, hit, 1, 0
1259, 9, T_Sinc, T_Sinc_DGLG, 487.0, hit, 1, 0
1260, 9, T_Scon, T_Scon_UGLG, 298.4, hit, 1, 0
1261, 9, T_Scon, T_Scon_UGLG, 353.7, hit, 1, 0
1262, 9, T_Scon, T_Scon_DRRR, 365.1, hit, 2, 0
1263, 9, T_Scon, T_Scon_UGLG, 364.4, incorrect, 2, 1
1264, 9, T_Sinc, T_Sinc_DGLG, 343.9, hit, 1, 0
1265, 9, T_Scon, T_Scon_DRRR, 491.3, hit, 2, 0
1266, 9, T_Scon, T_Scon_UGLG, 494.8, hit, 1, 0
1267, 9, T_Scon, T_Scon_DRRR, 682.2, hit, 2, 0
1268, 9, T_Sinc, T_Sinc_URRR, 381.7, hit, 2, 0
1269, 9, T_Scon, T_Scon_UGLG, 417.1, hit, 1, 0
1270, 9, T_Scon, T_Scon_UGLG, 228.6, hit, 1, 0
1271, 9, T_Scon, T_Scon_DRRR, 436.0, hit, 2, 0
1272, 9, T_Scon, T_Scon_UGLG, 347.4, hit, 1, 0
1273, 9, T_Sinc, T_Sinc_URRR, 378.9, hit, 2, 0
1274, 9, T_Scon, T_Scon_UGLG, 362.3, hit, 1, 0
1275, 9, T_Sinc, T_Sinc_URRR, 385.7, hit, 2, 0
1276, 9, T_Scon, T_Scon_DRRR, 385.1, hit, 2, 0
1277, 9, T_Sinc, T_Sinc_DGLG, 364.6, hit, 1, 0
1278, 9, T_Scon, T_Scon_UGLG, 284.0, hit, 1, 0
1279, 9, T_Sinc, T_Sinc_DGLG, 315.5, hit, 1, 0
1280, 9, T_Scon, T_Scon_DRRR, 406.9, hit, 2, 0
1281, 9, T_Scon, T_Scon_DRRR, 290.4, hit, 2, 0
1282, 9, T_Sinc, T_Sinc_DGLG, 353.8, hit, 1, 0
1283, 9, T_Scon, T_Scon_UGLG, 329.3, hit, 1, 0
1284, 9, T_Scon, T_Scon_DRRR, 380.7, hit, 2, 0
1285, 9, T_Sinc, T_Sinc_DGLG, 512.1, hit, 1, 0
1286, 9, T_Scon, T_Scon_UGLG, 455.5, hit, 1, 0
1287, 9, T_Scon, T_Scon_UGLG, 239.0, hit, 1, 0
1288, 9, T_Scon, T_Scon_DRRR, 418.4, hit, 2, 0
1289, 9, T_Sinc, T_Sinc_DGLG, 349.9, hit, 1, 0
1290, 9, T_Sinc, T_Sinc_URRR, 381.3, hit, 2, 0
1291, 9, T_Scon, T_Scon_UGLG, 328.7, hit, 1, 0
1292, 9, T_Sinc, T_Sinc_DGLG, 388.2, hit, 1, 0
1293, 9, T_Scon, T_Scon_DRRR, 371.6, hit, 2, 0
1294, 9, T_Scon, T_Scon_UGLG, 359.0, hit, 1, 0
1295, 9, T_Scon, T_Scon_UGLG, 298.5, hit, 1, 0
1296, 9, T_Scon, T_Scon_DRRR, 353.9, hit, 2, 0
