trial_index, block, condition, full_condition_code, RT, response_type, response_key, error_outlier
1,1, T_Sinc, T_Sinc_UGRG,1240, hit,2,2
2,1, T_Sinc, T_Sinc_DRLR,499.4, hit,1,0
3,1, T_Scon, T_Scon_URLR,286.8, hit,1,0
4,1, T_Sinc, T_Sinc_DRLR,642.2, hit,1,0
5,1, T_Scon, T_Scon_URLR,309.7, hit,1,0
6,1, T_Sinc, T_Sinc_UGRG,429.1, hit,2,0
7,1, T_Sinc, T_Sinc_UGRG,336.6, hit,2,0
8,1, T_Scon, T_Scon_DGRG,404, incorrect,1,1
9,1, T_Sinc, T_Sinc_UGRG,503.4, hit,2,0
10,1, T_Sinc, T_Sinc_UGRG,426.9, hit,2,0
11,1, T_Scon, T_Scon_URLR,350.3, hit,1,0
12,1, T_Sinc, T_Sinc_DRLR,545.7, hit,1,0
13,1, T_Scon, T_Scon_DGRG,377.2, hit,2,0
14,1, T_Sinc, T_Sinc_UGRG,388.7, hit,2,0
15,1, T_Sinc, T_Sinc_DRLR,564, hit,1,0
16,1, T_Sinc, T_Sinc_UGRG,423.5, hit,2,0
17,1, T_Sinc, T_Sinc_UGRG,299, hit,2,0
18,1, T_Sinc, T_Sinc_DRLR,510.4, hit,1,0
19,1, T_Scon, T_Scon_URLR,441.8, hit,1,0
20,1, T_Scon, T_Scon_DGRG,245.3, hit,2,0
21,1, T_Scon, T_Scon_URLR,504.7, incorrect,2,1
22,1, T_Scon, T_Scon_DGRG,520.1, hit,2,0
23,1, T_Sinc, T_Sinc_UGRG,423.6, hit,2,0
24,1, T_Sinc, T_Sinc_UGRG,367.1, hit,2,0
25,1, T_Scon, T_Scon_URLR,314.5, hit,1,0
26,1, T_Sinc, T_Sinc_DRLR,313.9, incorrect,2,1
27,1, T_Sinc, T_Sinc_UGRG,397.4, hit,2,0
28,1, T_Sinc, T_Sinc_UGRG,488.7, hit,2,0
29,1, T_Scon, T_Scon_URLR,348.2, hit,1,0
30,1, T_Sinc, T_Sinc_UGRG,331.7, incorrect,1,1
31,1, T_Sinc, T_Sinc_UGRG,443, hit,2,0
32,1, T_Sinc, T_Sinc_DRLR,402.5, hit,1,0
33,1, T_Sinc, T_Sinc_UGRG,414, incorrect,1,1
34,1, T_Sinc, T_Sinc_UGRG,629.4, hit,2,0
35,1, T_Sinc, T_Sinc_UGRG,556.8, hit,2,0
36,1, T_Sinc, T_Sinc_DRLR,496.3, hit,1,0
37,1, T_Sinc, T_Sinc_UGRG,351.5, hit,2,0
38,1, T_Sinc, T_Sinc_DRLR,342.9, hit,1,0
39,1, T_Sinc, T_Sinc_UGRG,390.3, hit,2,0
40,1, T_Scon, T_Scon_URLR,621.8, hit,1,0
41,1, T_Sinc, T_Sinc_DRLR,537.2, incorrect,2,1
42,1, T_Sinc, T_Sinc_UGRG,356.6, hit,2,0
43,1, T_Scon, T_Scon_DGRG,412.1, hit,2,0
44,1, T_Sinc, T_Sinc_DRLR,663.5, hit,1,0
45,1, T_Scon, T_Scon_URLR,366.9, hit,1,0
46,1, T_Sinc, T_Sinc_DRLR,374.4, hit,1,0
47,1, T_Scon, T_Scon_URLR,425.9, hit,1,0
48,1, T_Sinc, T_Sinc_UGRG,377.2, hit,2,0
49,1, T_Sinc, T_Sinc_UGRG,372.7, hit,2,0
50,1, T_Sinc, T_Sinc_UGRG,384.2, hit,2,0
51,1, T_Scon, T_Scon_DGRG,487.5, hit,2,0
52,1, T_Sinc, T_Sinc_DRLR,367, hit,1,0
53,1, T_Scon, T_Scon_DGRG,490.5, hit,2,0
54,1, T_Sinc, T_Sinc_DRLR,401.9, incorrect,2,1
55,1, T_Sinc, T_Sinc_UGRG,261.3, hit,2,0
56,1, T_Sinc, T_Sinc_DRLR,472.8, hit,1,0
57,1, T_Sinc, T_Sinc_DRLR,376.3, hit,1,0
58,1, T_Sinc, T_Sinc_DRLR,467.7, hit,1,0
59,1, T_Sinc, T_Sinc_UGRG,315.1, hit,2,0
60,1, T_Sinc, T_Sinc_DRLR,622.6, hit,1,0
61,1, T_Sinc, T_Sinc_DRLR,409.9, hit,1,0
62,1, T_Sinc, T_Sinc_UGRG,337.4, hit,2,0
63,1, T_Sinc, T_Sinc_DRLR,380.9, hit,1,0
64,1, T_Scon, T_Scon_URLR,596.3, hit,1,0
65,1, T_Sinc, T_Sinc_DRLR,699.7, hit,1,0
66,1, T_Sinc, T_Sinc_DRLR,431.2, hit,1,0
67,1, T_Sinc, T_Sinc_DRLR,426.7, hit,1,0
68,1, T_Scon, T_Scon_DGRG,466, hit,2,0
69,1, T_Sinc, T_Sinc_UGRG,685.5, hit,2,0
70,1, T_Sinc, T_Sinc_UGRG,344.9, hit,2,0
71,1, T_Sinc, T_Sinc_UGRG,348.3, hit,2,0
72,1, T_Sinc, T_Sinc_DRLR,411.8, hit,1,0
73,1, T_Scon, T_Scon_URLR,603, hit,1,0
74,1, T_Scon, T_Scon_DGRG,350.3, hit,2,0
75,1, T_Sinc, T_Sinc_DRLR,409.8, hit,1,0
76,1, T_Scon, T_Scon_DGRG,325.3, hit,2,0
77,1, T_Scon, T_Scon_DGRG,384.7, hit,2,0
78,1, T_Sinc, T_Sinc_DRLR,400.1, hit,1,0
79,1, T_Sinc, T_Sinc_DRLR,291.6, hit,1,0
80,1, T_Sinc, T_Sinc_UGRG,359.1, hit,2,0
81,1, T_Sinc, T_Sinc_UGRG,306.4, hit,2,0
82,1, T_Sinc, T_Sinc_UGRG,293.9, hit,2,0
83,1, T_Sinc, T_Sinc_UGRG,273.4, hit,2,0
84,1, T_Sinc, T_Sinc_UGRG,332.7, hit,2,0
85,1, T_Sinc, T_Sinc_UGRG,324.2, hit,2,0
86,1, T_Scon, T_Scon_URLR,503.7, hit,1,0
87,1, T_Scon, T_Scon_DGRG,851, hit,2,0
88,1, T_Sinc, T_Sinc_DRLR,462.5, hit,1,0
89,1, T_Sinc, T_Sinc_UGRG,390, hit,2,0
90,1, T_Scon, T_Scon_DGRG,497.5, hit,2,0
91,1, T_Sinc, T_Sinc_DRLR,520.8, hit,1,0
92,1, T_Sinc, T_Sinc_DRLR,836.3, hit,1,0
93,1, T_Sinc, T_Sinc_DRLR,391.8, hit,1,0
94,1, T_Scon, T_Scon_URLR,423.1, hit,1,0
95,1, T_Sinc, T_Sinc_DRLR,370.6, hit,1,0
96,1, T_Sinc, T_Sinc_DRLR,326.1, hit,1,0
97,1, T_Sinc, T_Sinc_UGRG,341.5, hit,2,0
98,1, T_Sinc, T_Sinc_UGRG,480.9, hit,2,0
99,1, T_Scon, T_Scon_DGRG,352.4, incorrect,1,1
100,1, T_Sinc, T_Sinc_DRLR,351.8, hit,1,0
101,1, T_Sinc, T_Sinc_UGRG,523.2, hit,2,0
102,1, T_Sinc, T_Sinc_DRLR,598.7, hit,1,0
103,1, T_Sinc, T_Sinc_DRLR,434.2, hit,1,0
104,1, T_Sinc, T_Sinc_DRLR,437.5, hit,1,0
105,1, T_Scon, T_Scon_DGRG,361, hit,2,0
106,1, T_Sinc, T_Sinc_UGRG,524.5, hit,2,0
107,1, T_Scon, T_Scon_URLR,519.9, hit,1,0
108,1, T_Sinc, T_Sinc_DRLR,295.3, hit,1,0
109,1, T_Scon, T_Scon_DGRG,462.5, hit,2,0
110,1, T_Sinc, T_Sinc_UGRG,498, hit,2,0
111,1, T_Sinc, T_Sinc_DRLR,437.3, hit,1,0
112,1, T_Scon, T_Scon_DGRG,392.8, hit,2,0
113,1, T_Sinc, T_Sinc_DRLR,668.3, hit,1,0
114,1, T_Sinc, T_Sinc_UGRG,687.6, hit,2,0
115,1, T_Sinc, T_Sinc_DRLR,619.1, hit,1,0
116,1, T_Scon, T_Scon_URLR,478.6, hit,1,0
117,1, T_Sinc, T_Sinc_UGRG,465.9, hit,2,0
118,1, T_Sinc, T_Sinc_UGRG,373.4, hit,2,0
119,1, T_Sinc, T_Sinc_DRLR,472.9, hit,1,0
120,1, T_Sinc, T_Sinc_DRLR,428.3, hit,1,0
121,1, T_Sinc, T_Sinc_UGRG,367.7, hit,2,0
122,1, T_Sinc, T_Sinc_UGRG,327.2, hit,2,0
123,1, T_Sinc, T_Sinc_UGRG,342.6, hit,2,0
124,1, T_Sinc, T_Sinc_DRLR,410, hit,1,0
125,1, T_Sinc, T_Sinc_UGRG,497.5, hit,2,0
126,1, T_Sinc, T_Sinc_DRLR,525, hit,1,0
127,1, T_Sinc, T_Sinc_DRLR,368.3, hit,1,0
128,1, T_Sinc, T_Sinc_UGRG,275.8, hit,2,0
129,1, T_Sinc, T_Sinc_DRLR,515.3, hit,1,0
130,1, T_Sinc, T_Sinc_DRLR,410.7, hit,1,0
131,1, T_Sinc, T_Sinc_DRLR,686.2, hit,1,0
132,1, T_Scon, T_Scon_URLR,497.6, incorrect,2,1
133,1, T_Sinc, T_Sinc_UGRG,589, hit,2,0
134,1, T_Sinc, T_Sinc_DRLR,516.4, hit,1,0
135,1, T_Sinc, T_Sinc_UGRG,391.9, hit,2,0
136,1, T_Sinc, T_Sinc_UGRG,471.3, hit,2,0
137,1, T_Scon, T_Scon_URLR,434.7, hit,1,0
138,1, T_Sinc, T_Sinc_UGRG,410.2, hit,2,0
139,1, T_Sinc, T_Sinc_DRLR,477.7, hit,1,0
140,1, T_Sinc, T_Sinc_UGRG,537.1, hit,2,0
141,1, T_Scon, T_Scon_DGRG,540.5, hit,2,0
142,1, T_Sinc, T_Sinc_DRLR,572, hit,1,0
143,1, T_Sinc, T_Sinc_DRLR,403.4, hit,1,0
144,1, T_Sinc, T_Sinc_DRLR,318.8, hit,1,0
145,2, T_Sinc, T_Sinc_UGRG,474.1, hit,2,0
146,2, T_Scon, T_Scon_URLR,301.6, hit,1,0
147,2, T_Sinc, T_Sinc_DRLR,289.1, incorrect,2,1
148,2, T_Scon, T_Scon_URLR,432.5, hit,1,0
149,2, T_Sinc, T_Sinc_DRLR,275.9, hit,1,0
150,2, T_Sinc, T_Sinc_DRLR,335.4, hit,1,0
151,2, T_Sinc, T_Sinc_DRLR,314.8, hit,1,0
152,2, T_Sinc, T_Sinc_UGRG,402.2, hit,2,0
153,2, T_Sinc, T_Sinc_DRLR,369.7, hit,1,0
154,2, T_Sinc, T_Sinc_UGRG,309.1, incorrect,1,1
155,2, T_Sinc, T_Sinc_DRLR,416.5, hit,1,0
156,2, T_Scon, T_Scon_URLR,424, hit,1,0
157,2, T_Sinc, T_Sinc_UGRG,431.4, hit,2,0
158,2, T_Sinc, T_Sinc_DRLR,482.8, hit,1,0
159,2, T_Sinc, T_Sinc_DRLR,334.3, hit,1,0
160,2, T_Sinc, T_Sinc_DRLR,389.7, hit,1,0
161,2, T_Sinc, T_Sinc_DRLR,349.2, hit,1,0
162,2, T_Scon, T_Scon_DGRG,424.6, hit,2,0
163,2, T_Sinc, T_Sinc_UGRG,476.1, hit,2,0
164,2, T_Scon, T_Scon_URLR,511.4, hit,1,0
165,2, T_Sinc, T_Sinc_UGRG,342.9, hit,2,0
166,2, T_Sinc, T_Sinc_DRLR,370.4, hit,1,0
167,2, T_Sinc, T_Sinc_DRLR,409.8, hit,1,0
168,2, T_Sinc, T_Sinc_DRLR,285.2, hit,1,0
169,2, T_Sinc, T_Sinc_UGRG,300.7, hit,2,0
170,2, T_Sinc, T_Sinc_UGRG,376.1, hit,2,0
171,2, T_Sinc, T_Sinc_UGRG,419.5, hit,2,0
172,2, T_Scon, T_Scon_DGRG,295, incorrect,1,1
173,2, T_Sinc, T_Sinc_DRLR,370.5, hit,1,0
174,2, T_Sinc, T_Sinc_UGRG,501.8, hit,2,0
175,2, T_Sinc, T_Sinc_UGRG,305.3, hit,2,0
176,2, T_Sinc, T_Sinc_DRLR,368.8, hit,1,0
177,2, T_Sinc, T_Sinc_UGRG,492.2, hit,2,0
178,2, T_Sinc, T_Sinc_DRLR,539.6, hit,1,0
179,2, T_Sinc, T_Sinc_DRLR,323.1, hit,1,0
180,2, T_Sinc, T_Sinc_UGRG,310.5, hit,2,0
181,2, T_Sinc, T_Sinc_UGRG,377.7, hit,2,0
182,2, T_Scon, T_Scon_URLR,361.1, hit,1,0
183,2, T_Scon, T_Scon_URLR,340.6, hit,1,0
184,2, T_Sinc, T_Sinc_DRLR,347.9, hit,1,0
185,2, T_Sinc, T_Sinc_DRLR,335.4, incorrect,2,1
186,2, T_Sinc, T_Sinc_DRLR,434.9, hit,1,0
187,2, T_Sinc, T_Sinc_UGRG,354.2, hit,2,0
188,2, T_Scon, T_Scon_DGRG,513.7, hit,2,0
189,2, T_Scon, T_Scon_URLR,385.2, hit,1,0
190,2, T_Scon, T_Scon_URLR,332.6, hit,1,0
191,2, T_Scon, T_Scon_DGRG,432, hit,2,0
192,2, T_Sinc, T_Sinc_DRLR,467.5, hit,1,0
193,2, T_Sinc, T_Sinc_DRLR,303, hit,1,0
194,2, T_Sinc, T_Sinc_DRLR,354.3, hit,1,0
195,2, T_Sinc, T_Sinc_UGRG,333.8, hit,2,0
196,2, T_Sinc, T_Sinc_DRLR,449.3, hit,1,0
197,2, T_Sinc, T_Sinc_UGRG,372.6, hit,2,0
198,2, T_Sinc, T_Sinc_UGRG,496.1, hit,2,0
199,2, T_Sinc, T_Sinc_DRLR,283.6, hit,1,0
200,2, T_Sinc, T_Sinc_UGRG,363.1, incorrect,1,1
201,2, T_Sinc, T_Sinc_UGRG,470.4, hit,2,0
202,2, T_Sinc, T_Sinc_UGRG,425.9, hit,2,0
203,2, T_Scon, T_Scon_DGRG,457.4, hit,2,0
204,2, T_Sinc, T_Sinc_UGRG,388.7, hit,2,0
205,2, T_Sinc, T_Sinc_UGRG,536.2, hit,2,0
206,2, T_Sinc, T_Sinc_UGRG,523.7, hit,2,0
207,2, T_Sinc, T_Sinc_UGRG,463, hit,2,0
208,2, T_Sinc, T_Sinc_UGRG,770.5, hit,2,0
209,2, T_Sinc, T_Sinc_DRLR,365.9, hit,1,0
210,2, T_Sinc, T_Sinc_DRLR,329.4, hit,1,0
211,2, T_Scon, T_Scon_DGRG,404.8, hit,2,0
212,2, T_Scon, T_Scon_URLR,440.3, hit,1,0
213,2, T_Sinc, T_Sinc_UGRG,715.7, hit,2,0
214,2, T_Scon, T_Scon_DGRG,535.1, hit,2,0
215,2, T_Sinc, T_Sinc_DRLR,574.6, hit,1,0
216,2, T_Scon, T_Scon_URLR,802, hit,1,0
217,2, T_Sinc, T_Sinc_DRLR,865.2, incorrect,2,1
218,2, T_Sinc, T_Sinc_UGRG,920.6, hit,2,2
219,2, T_Scon, T_Scon_DGRG,480.1, hit,2,0
220,2, T_Scon, T_Scon_URLR,359.4, hit,1,0
221,2, T_Scon, T_Scon_DGRG,334.9, hit,2,0
222,2, T_Sinc, T_Sinc_DRLR,426.4, hit,1,0
223,2, T_Sinc, T_Sinc_UGRG,365.8, hit,2,0
224,2, T_Sinc, T_Sinc_DRLR,337.2, hit,1,0
225,2, T_Sinc, T_Sinc_UGRG,376.7, hit,2,0
226,2, T_Sinc, T_Sinc_UGRG,996.1, hit,2,2
227,2, T_Sinc, T_Sinc_UGRG,363.5, hit,2,0
228,2, T_Scon, T_Scon_URLR,395, hit,1,0
229,2, T_Sinc, T_Sinc_UGRG,454.4, hit,2,0
230,2, T_Sinc, T_Sinc_DRLR,441.9, hit,1,0
231,2, T_Scon, T_Scon_DGRG,445.3, hit,2,0
232,2, T_Sinc, T_Sinc_UGRG,400.7, hit,2,0
233,2, T_Sinc, T_Sinc_DRLR,364.2, hit,1,0
234,2, T_Sinc, T_Sinc_DRLR,767.6, incorrect,2,1
235,2, T_Sinc, T_Sinc_UGRG,551, incorrect,1,1
236,2, T_Scon, T_Scon_DGRG,618.5, hit,2,0
237,2, T_Sinc, T_Sinc_UGRG,461.9, hit,2,0
238,2, T_Sinc, T_Sinc_DRLR,421.4, hit,1,0
239,2, T_Scon, T_Scon_URLR,460.8, hit,1,0
240,2, T_Sinc, T_Sinc_DRLR,364.2, hit,1,0
241,2, T_Scon, T_Scon_URLR,379.7, hit,1,0
242,2, T_Sinc, T_Sinc_UGRG,503.1, hit,2,0
243,2, T_Scon, T_Scon_DGRG,402.6, hit,2,0
244,2, T_Scon, T_Scon_DGRG,494, hit,2,0
245,2, T_Scon, T_Scon_URLR,501.4, hit,1,0
246,2, T_Sinc, T_Sinc_DRLR,656.9, hit,1,0
247,2, T_Sinc, T_Sinc_DRLR,348.3, hit,1,0
248,2, T_Sinc, T_Sinc_DRLR,383.7, hit,1,0
249,2, T_Sinc, T_Sinc_DRLR,379.2, hit,1,0
250,2, T_Sinc, T_Sinc_DRLR,458.6, hit,1,0
251,2, T_Sinc, T_Sinc_UGRG,406, hit,2,0
252,2, T_Scon, T_Scon_URLR,429.5, hit,1,0
253,2, T_Scon, T_Scon_DGRG,576.7, hit,2,0
254,2, T_Sinc, T_Sinc_DRLR,344.1, hit,1,0
255,2, T_Sinc, T_Sinc_UGRG,443.5, hit,2,0
256,2, T_Sinc, T_Sinc_UGRG,455, hit,2,0
257,2, T_Sinc, T_Sinc_DRLR,330.4, hit,1,0
258,2, T_Sinc, T_Sinc_UGRG,509.8, hit,2,0
259,2, T_Scon, T_Scon_DGRG,509.3, hit,2,0
260,2, T_Sinc, T_Sinc_UGRG,424.7, hit,2,0
261,2, T_Sinc, T_Sinc_UGRG,372.1, hit,2,0
262,2, T_Sinc, T_Sinc_DRLR,279.6, hit,1,0
263,2, T_Sinc, T_Sinc_DRLR,331, hit,1,0
264,2, T_Sinc, T_Sinc_UGRG,514.4, hit,2,0
265,2, T_Sinc, T_Sinc_DRLR,509.9, hit,1,0
266,2, T_Sinc, T_Sinc_DRLR,369.3, hit,1,0
267,2, T_Sinc, T_Sinc_UGRG,324.7, hit,2,0
268,2, T_Sinc, T_Sinc_DRLR,392.2, hit,1,0
269,2, T_Scon, T_Scon_URLR,319.7, incorrect,2,1
270,2, T_Sinc, T_Sinc_DRLR,491, hit,1,0
271,2, T_Sinc, T_Sinc_DRLR,526.5, hit,1,0
272,2, T_Sinc, T_Sinc_DRLR,390, hit,1,0
273,2, T_Sinc, T_Sinc_UGRG,237.4, hit,2,0
274,2, T_Sinc, T_Sinc_UGRG,372.8, hit,2,0
275,2, T_Scon, T_Scon_URLR,448.3, hit,1,0
276,2, T_Sinc, T_Sinc_UGRG,527.7, hit,2,0
277,2, T_Sinc, T_Sinc_DRLR,507.1, hit,1,0
278,2, T_Sinc, T_Sinc_UGRG,358.6, incorrect,1,1
279,2, T_Sinc, T_Sinc_UGRG,426, hit,2,0
280,2, T_Scon, T_Scon_DGRG,381.5, hit,2,0
281,2, T_Scon, T_Scon_DGRG,528.9, hit,2,0
282,2, T_Sinc, T_Sinc_DRLR,492.4, hit,1,0
283,2, T_Sinc, T_Sinc_UGRG,587.8, hit,2,0
284,2, T_Sinc, T_Sinc_UGRG,471.2, hit,2,0
285,2, T_Sinc, T_Sinc_UGRG,442.6, hit,2,0
286,2, T_Scon, T_Scon_DGRG,658.1, hit,2,0
287,2, T_Sinc, T_Sinc_DRLR,45.5, incorrect,2,1
288,2, T_Sinc, T_Sinc_UGRG,480.9, hit,2,0
289,3, T_Sinc, T_Sinc_UGRG,425.3, hit,2,0
290,3, T_Sinc, T_Sinc_UGRG,316.7, hit,2,0
291,3, T_Sinc, T_Sinc_UGRG,292.2, hit,2,0
292,3, T_Sinc, T_Sinc_DRLR,367.6, hit,1,0
293,3, T_Sinc, T_Sinc_DRLR,387, hit,1,0
294,3, T_Sinc, T_Sinc_UGRG,346.5, hit,2,0
295,3, T_Sinc, T_Sinc_UGRG,294, hit,2,0
296,3, T_Sinc, T_Sinc_DRLR,281.4, hit,1,0
297,3, T_Scon, T_Scon_DGRG,428.9, incorrect,1,1
298,3, T_Scon, T_Scon_DGRG,328.3, incorrect,1,1
299,3, T_Sinc, T_Sinc_DRLR,611.7, hit,1,0
300,3, T_Scon, T_Scon_DGRG,375.1, hit,2,0
301,3, T_Sinc, T_Sinc_UGRG,294.6, hit,2,0
302,3, T_Scon, T_Scon_DGRG,410, hit,2,0
303,3, T_Sinc, T_Sinc_UGRG,365.4, hit,2,0
304,3, T_Sinc, T_Sinc_UGRG,312.9, hit,2,0
305,3, T_Scon, T_Scon_DGRG,412.3, incorrect,1,1
306,3, T_Sinc, T_Sinc_UGRG,439.8, hit,2,0
307,3, T_Scon, T_Scon_URLR,511.2, hit,1,0
308,3, T_Sinc, T_Sinc_UGRG,542.6, hit,2,0
309,3, T_Scon, T_Scon_URLR,474.1, hit,1,0
310,3, T_Sinc, T_Sinc_DRLR,449.5, hit,1,0
311,3, T_Sinc, T_Sinc_DRLR,508.9, hit,1,0
312,3, T_Sinc, T_Sinc_UGRG,444.4, hit,2,0
313,3, T_Sinc, T_Sinc_DRLR,627.8, hit,1,0
314,3, T_Sinc, T_Sinc_DRLR,639.2, hit,1,0
315,3, T_Sinc, T_Sinc_UGRG,438.7, hit,2,0
316,3, T_Sinc, T_Sinc_UGRG,398.2, hit,2,0
317,3, T_Sinc, T_Sinc_DRLR,673.5, hit,1,0
318,3, T_Sinc, T_Sinc_UGRG,769, hit,2,0
319,3, T_Sinc, T_Sinc_DRLR,500.5, hit,1,0
320,3, T_Sinc, T_Sinc_UGRG,607.8, hit,2,0
321,3, T_Sinc, T_Sinc_DRLR,631.3, hit,1,0
322,3, T_Scon, T_Scon_URLR,482.8, incorrect,2,1
323,3, T_Sinc, T_Sinc_DRLR,410.1, hit,1,0
324,3, T_Sinc, T_Sinc_UGRG,401.6, hit,2,0
325,3, T_Sinc, T_Sinc_UGRG,400.8, hit,2,0
326,3, T_Sinc, T_Sinc_DRLR,284.2, hit,1,0
327,3, T_Sinc, T_Sinc_DRLR,335.6, hit,1,0
328,3, T_Scon, T_Scon_DGRG,627.1, hit,2,0
329,3, T_Sinc, T_Sinc_UGRG,910.6, hit,2,2
330,3, T_Sinc, T_Sinc_UGRG,641.9, hit,2,0
331,3, T_Scon, T_Scon_DGRG,513.4, hit,2,0
332,3, T_Scon, T_Scon_DGRG,392.9, hit,2,0
333,3, T_Sinc, T_Sinc_UGRG,492.2, hit,2,0
334,3, T_Scon, T_Scon_URLR,303.7, hit,1,0
335,3, T_Sinc, T_Sinc_UGRG,487.2, hit,2,0
336,3, T_Sinc, T_Sinc_UGRG,474.6, hit,2,0
337,3, T_Scon, T_Scon_DGRG,606, hit,2,0
338,3, T_Scon, T_Scon_URLR,497.4, hit,1,0
339,3, T_Sinc, T_Sinc_UGRG,540.9, hit,2,0
340,3, T_Sinc, T_Sinc_DRLR,352.3, hit,1,0
341,3, T_Sinc, T_Sinc_UGRG,563.8, hit,2,0
342,3, T_Scon, T_Scon_URLR,451.2, hit,1,0
343,3, T_Scon, T_Scon_DGRG,482.6, hit,2,0
344,3, T_Sinc, T_Sinc_DRLR,662, hit,1,0
345,3, T_Sinc, T_Sinc_DRLR,385.5, hit,1,0
346,3, T_Sinc, T_Sinc_DRLR,413, hit,1,0
347,3, T_Sinc, T_Sinc_DRLR,432.4, hit,1,0
348,3, T_Sinc, T_Sinc_UGRG,651.8, hit,2,0
349,3, T_Sinc, T_Sinc_UGRG,415.3, hit,2,0
350,3, T_Sinc, T_Sinc_DRLR,550.7, hit,1,0
351,3, T_Sinc, T_Sinc_UGRG,474.1, hit,2,0
352,3, T_Sinc, T_Sinc_DRLR,533.6, hit,1,0
353,3, T_Sinc, T_Sinc_DRLR,445, hit,1,0
354,3, T_Sinc, T_Sinc_DRLR,484.4, hit,1,0
355,3, T_Sinc, T_Sinc_UGRG,447.9, hit,2,0
356,3, T_Sinc, T_Sinc_DRLR,499.3, hit,1,0
357,3, T_Sinc, T_Sinc_UGRG,446.8, hit,2,0
358,3, T_Scon, T_Scon_URLR,546.2, hit,1,0
359,3, T_Sinc, T_Sinc_DRLR,549.7, hit,1,0
360,3, T_Sinc, T_Sinc_UGRG,573.1, hit,2,0
361,3, T_Scon, T_Scon_URLR,552.3, hit,1,0
362,3, T_Scon, T_Scon_URLR,315.7, hit,1,0
363,3, T_Scon, T_Scon_DGRG,379.1, hit,2,0
364,3, T_Sinc, T_Sinc_DRLR,450.6, hit,1,0
365,3, T_Scon, T_Scon_DGRG,454, hit,2,0
366,3, T_Sinc, T_Sinc_UGRG,465.4, hit,2,0
367,3, T_Sinc, T_Sinc_DRLR,428.9, hit,1,0
368,3, T_Sinc, T_Sinc_DRLR,364.3, hit,1,0
369,3, T_Sinc, T_Sinc_UGRG,383.7, hit,2,0
370,3, T_Sinc, T_Sinc_UGRG,923.2, hit,2,2
371,3, T_Sinc, T_Sinc_DRLR,390.6, hit,1,0
372,3, T_Sinc, T_Sinc_UGRG,606.1, hit,2,0
373,3, T_Scon, T_Scon_URLR,297.5, hit,1,0
374,3, T_Sinc, T_Sinc_DRLR,308.9, hit,1,0
375,3, T_Sinc, T_Sinc_UGRG,416.4, hit,2,0
376,3, T_Sinc, T_Sinc_UGRG,803.8, incorrect,1,1
377,3, T_Sinc, T_Sinc_DRLR,607.3, hit,1,0
378,3, T_Sinc, T_Sinc_UGRG,374.7, hit,2,0
379,3, T_Scon, T_Scon_DGRG,354.2, hit,2,0
380,3, T_Sinc, T_Sinc_DRLR,405.6, hit,1,0
381,3, T_Sinc, T_Sinc_UGRG,469, hit,2,0
382,3, T_Sinc, T_Sinc_UGRG,780.5, hit,2,0
383,3, T_Sinc, T_Sinc_UGRG,391.9, hit,2,0
384,3, T_Sinc, T_Sinc_DRLR,435.3, hit,1,0
385,3, T_Scon, T_Scon_DGRG,398.8, incorrect,1,1
386,3, T_Sinc, T_Sinc_UGRG,386.2, incorrect,1,1
387,3, T_Sinc, T_Sinc_DRLR,317.7, hit,1,0
388,3, T_Sinc, T_Sinc_UGRG,369.1, hit,2,0
389,3, T_Sinc, T_Sinc_UGRG,376.5, hit,2,0
390,3, T_Scon, T_Scon_URLR,492, hit,1,0
391,3, T_Sinc, T_Sinc_DRLR,595.4, hit,1,0
392,3, T_Sinc, T_Sinc_UGRG,802.8, hit,2,0
393,3, T_Sinc, T_Sinc_DRLR,578.3, incorrect,2,1
394,3, T_Scon, T_Scon_URLR,473.7, hit,1,0
395,3, T_Sinc, T_Sinc_UGRG,465.2, hit,2,0
396,3, T_Sinc, T_Sinc_UGRG,516.6, hit,2,0
397,3, T_Sinc, T_Sinc_DRLR,763.8, incorrect,2,1
398,3, T_Scon, T_Scon_DGRG,311.2, hit,2,0
399,3, T_Scon, T_Scon_DGRG,730.6, hit,2,0
400,3, T_Sinc, T_Sinc_UGRG,414.1, hit,2,0
401,3, T_Sinc, T_Sinc_DRLR,357.5, hit,1,0
402,3, T_Scon, T_Scon_DGRG,304.9, incorrect,1,1
403,3, T_Sinc, T_Sinc_DRLR,316.4, hit,1,0
404,3, T_Scon, T_Scon_DGRG,303.8, hit,2,0
405,3, T_Sinc, T_Sinc_DRLR,423.3, hit,1,0
406,3, T_Sinc, T_Sinc_DRLR,578.7, incorrect,2,1
407,3, T_Sinc, T_Sinc_DRLR,474.1, hit,1,0
408,3, T_Scon, T_Scon_URLR,473.6, hit,1,0
409,3, T_Sinc, T_Sinc_DRLR,397, hit,1,0
410,3, T_Sinc, T_Sinc_DRLR,488.4, hit,1,0
411,3, T_Sinc, T_Sinc_DRLR,395.9, hit,1,0
412,3, T_Sinc, T_Sinc_DRLR,407.4, hit,1,0
413,3, T_Sinc, T_Sinc_DRLR,282.7, hit,1,0
414,3, T_Scon, T_Scon_URLR,422.2, hit,1,0
415,3, T_Sinc, T_Sinc_DRLR,385.7, hit,1,0
416,3, T_Sinc, T_Sinc_DRLR,509, hit,1,0
417,3, T_Sinc, T_Sinc_DRLR,324.5, hit,1,0
418,3, T_Scon, T_Scon_URLR,352, hit,1,0
419,3, T_Sinc, T_Sinc_UGRG,479.4, hit,2,0
420,3, T_Sinc, T_Sinc_UGRG,338.8, hit,2,0
421,3, T_Sinc, T_Sinc_DRLR,0.2, miss,3345610,1
422,3, T_Sinc, T_Sinc_UGRG,1093.7, hit,2,2
423,3, T_Sinc, T_Sinc_UGRG,1145.1, hit,2,2
424,3, T_Sinc, T_Sinc_DRLR,664.5, hit,1,0
425,3, T_Scon, T_Scon_URLR,488, hit,1,0
426,3, T_Scon, T_Scon_URLR,523.4, hit,1,0
427,3, T_Sinc, T_Sinc_UGRG,510.8, hit,2,0
428,3, T_Sinc, T_Sinc_UGRG,618.3, hit,2,0
429,3, T_Scon, T_Scon_URLR,445.7, hit,1,0
430,3, T_Sinc, T_Sinc_UGRG,497.1, hit,2,0
431,3, T_Sinc, T_Sinc_DRLR,968.6, hit,1,2
432,3, T_Sinc, T_Sinc_DRLR,900.1, hit,1,2
433,4, T_Scon, T_Scon_URLR,390.3, hit,1,0
434,4, T_Sinc, T_Sinc_UGRG,361.8, hit,2,0
435,4, T_Sinc, T_Sinc_UGRG,293.1, hit,2,0
436,4, T_Scon, T_Scon_DGRG,408.6, hit,2,0
437,4, T_Scon, T_Scon_DGRG,404, hit,2,0
438,4, T_Scon, T_Scon_DGRG,351.5, hit,2,0
439,4, T_Scon, T_Scon_URLR,326.9, hit,1,0
440,4, T_Scon, T_Scon_DGRG,370.3, hit,2,0
441,4, T_Scon, T_Scon_URLR,301.8, hit,1,0
442,4, T_Sinc, T_Sinc_DRLR,269.3, hit,1,0
443,4, T_Sinc, T_Sinc_DRLR,280.6, hit,1,0
444,4, T_Scon, T_Scon_DGRG,332.1, incorrect,1,1
445,4, T_Scon, T_Scon_URLR,407.5, hit,1,0
446,4, T_Sinc, T_Sinc_DRLR,370.9, hit,1,0
447,4, T_Sinc, T_Sinc_UGRG,318.4, hit,2,0
448,4, T_Scon, T_Scon_DGRG,361.9, hit,2,0
449,4, T_Sinc, T_Sinc_DRLR,341.2, hit,1,0
450,4, T_Scon, T_Scon_DGRG,732.7, hit,2,0
451,4, T_Sinc, T_Sinc_DRLR,424.2, hit,1,0
452,4, T_Scon, T_Scon_DGRG,539.5, hit,2,0
453,4, T_Scon, T_Scon_DGRG,455, hit,2,0
454,4, T_Scon, T_Scon_URLR,418.5, hit,1,0
455,4, T_Scon, T_Scon_URLR,501.8, hit,1,0
456,4, T_Scon, T_Scon_DGRG,833.3, hit,2,0
457,4, T_Scon, T_Scon_DGRG,412.8, incorrect,1,1
458,4, T_Scon, T_Scon_URLR,328.2, hit,1,0
459,4, T_Sinc, T_Sinc_UGRG,311.6, hit,2,0
460,4, T_Scon, T_Scon_DGRG,379.1, hit,2,0
461,4, T_Scon, T_Scon_URLR,694.6, hit,1,0
462,4, T_Sinc, T_Sinc_UGRG,309.9, hit,2,0
463,4, T_Scon, T_Scon_URLR,557.4, hit,1,0
464,4, T_Scon, T_Scon_URLR,428.9, hit,1,0
465,4, T_Scon, T_Scon_DGRG,688.2, hit,2,0
466,4, T_Sinc, T_Sinc_UGRG,335.7, hit,2,0
467,4, T_Scon, T_Scon_URLR,379.2, hit,1,0
468,4, T_Scon, T_Scon_DGRG,562.6, hit,2,0
469,4, T_Scon, T_Scon_DGRG,457.8, hit,2,0
470,4, T_Scon, T_Scon_URLR,353.2, hit,1,0
471,4, T_Scon, T_Scon_URLR,296.7, hit,1,0
472,4, T_Scon, T_Scon_DGRG,392, hit,2,0
473,4, T_Scon, T_Scon_URLR,515.5, hit,1,0
474,4, T_Sinc, T_Sinc_UGRG,383, hit,2,0
475,4, T_Sinc, T_Sinc_DRLR,450.3, hit,1,0
476,4, T_Scon, T_Scon_DGRG,333.8, hit,2,0
477,4, T_Scon, T_Scon_DGRG,489.3, hit,2,0
478,4, T_Scon, T_Scon_DGRG,476.6, hit,2,0
479,4, T_Scon, T_Scon_URLR,648.1, hit,1,0
480,4, T_Scon, T_Scon_URLR,471.6, hit,1,0
481,4, T_Scon, T_Scon_URLR,347, hit,1,0
482,4, T_Scon, T_Scon_URLR,922.4, incorrect,2,1
483,4, T_Sinc, T_Sinc_UGRG,453.9, hit,2,0
484,4, T_Scon, T_Scon_DGRG,329.4, hit,2,0
485,4, T_Scon, T_Scon_URLR,348.7, hit,1,0
486,4, T_Sinc, T_Sinc_UGRG,468.2, hit,2,0
487,4, T_Scon, T_Scon_URLR,495.7, hit,1,0
488,4, T_Scon, T_Scon_DGRG,427.1, hit,2,0
489,4, T_Scon, T_Scon_DGRG,462.5, hit,2,0
490,4, T_Sinc, T_Sinc_DRLR,582, hit,1,0
491,4, T_Sinc, T_Sinc_DRLR,513.3, hit,1,0
492,4, T_Scon, T_Scon_URLR,532.8, hit,1,0
493,4, T_Scon, T_Scon_URLR,1100.3, hit,1,2
494,4, T_Scon, T_Scon_DGRG,567.8, hit,2,0
495,4, T_Scon, T_Scon_URLR,539.1, hit,1,0
496,4, T_Scon, T_Scon_URLR,514.6, hit,1,0
497,4, T_Scon, T_Scon_URLR,718.1, hit,1,0
498,4, T_Scon, T_Scon_DGRG,453.4, hit,2,0
499,4, T_Scon, T_Scon_URLR,528.9, hit,1,0
500,4, T_Scon, T_Scon_URLR,648.3, hit,1,0
501,4, T_Scon, T_Scon_URLR,351.7, hit,1,0
502,4, T_Sinc, T_Sinc_UGRG,1275.2, hit,2,2
503,4, T_Scon, T_Scon_URLR,862.6, hit,1,0
504,4, T_Scon, T_Scon_URLR,0.1, miss,1703220,1
505,4, T_Sinc, T_Sinc_DRLR,505.3, hit,1,0
506,4, T_Sinc, T_Sinc_UGRG,356.7, hit,2,0
507,4, T_Sinc, T_Sinc_DRLR,420.1, incorrect,2,1
508,4, T_Scon, T_Scon_DGRG,423.5, hit,2,0
509,4, T_Scon, T_Scon_DGRG,367, hit,2,0
510,4, T_Scon, T_Scon_DGRG,338.4, hit,2,0
511,4, T_Scon, T_Scon_DGRG,321.9, incorrect,1,1
512,4, T_Sinc, T_Sinc_DRLR,305.3, hit,1,0
513,4, T_Scon, T_Scon_DGRG,876.7, hit,2,2
514,4, T_Scon, T_Scon_DGRG,936.2, hit,2,2
515,4, T_Sinc, T_Sinc_UGRG,583.6, hit,2,0
516,4, T_Scon, T_Scon_DGRG,591, hit,2,0
517,4, T_Scon, T_Scon_URLR,0.1, miss,2165689,1
518,4, T_Sinc, T_Sinc_DRLR,642, hit,1,0
519,4, T_Scon, T_Scon_DGRG,305.3, hit,2,0
520,4, T_Sinc, T_Sinc_DRLR,480.8, hit,1,0
521,4, T_Scon, T_Scon_DGRG,448.3, hit,2,0
522,4, T_Scon, T_Scon_URLR,407.6, hit,1,0
523,4, T_Sinc, T_Sinc_UGRG,603.1, hit,2,0
524,4, T_Sinc, T_Sinc_DRLR,314.6, hit,1,0
525,4, T_Scon, T_Scon_DGRG,573.9, hit,2,0
526,4, T_Scon, T_Scon_DGRG,509.4, hit,2,0
527,4, T_Scon, T_Scon_URLR,456.9, hit,1,0
528,4, T_Scon, T_Scon_URLR,320.2, hit,1,0
529,4, T_Sinc, T_Sinc_UGRG,0.1, miss,2407673,1
530,4, T_Scon, T_Scon_URLR,1335.2, hit,1,2
531,4, T_Scon, T_Scon_DGRG,434.7, hit,2,0
532,4, T_Scon, T_Scon_DGRG,342, hit,2,0
533,4, T_Scon, T_Scon_URLR,433.5, hit,1,0
534,4, T_Scon, T_Scon_URLR,317, hit,1,0
535,4, T_Scon, T_Scon_DGRG,444.3, hit,2,0
536,4, T_Scon, T_Scon_DGRG,275.8, hit,2,0
537,4, T_Scon, T_Scon_URLR,391.3, hit,1,0
538,4, T_Scon, T_Scon_DGRG,354.6, hit,2,0
539,4, T_Scon, T_Scon_DGRG,766.1, hit,2,0
540,4, T_Scon, T_Scon_DGRG,305.5, hit,2,0
541,4, T_Scon, T_Scon_DGRG,344.8, hit,2,0
542,4, T_Scon, T_Scon_DGRG,296.1, hit,2,0
543,4, T_Scon, T_Scon_URLR,307.6, hit,1,0
544,4, T_Scon, T_Scon_URLR,335.1, incorrect,2,1
545,4, T_Scon, T_Scon_URLR,394.4, hit,1,0
546,4, T_Scon, T_Scon_URLR,253.9, hit,1,0
547,4, T_Scon, T_Scon_URLR,405.3, hit,1,0
548,4, T_Sinc, T_Sinc_UGRG,332.7, incorrect,1,1
549,4, T_Sinc, T_Sinc_UGRG,448.2, hit,2,0
550,4, T_Sinc, T_Sinc_UGRG,391.6, hit,2,0
551,4, T_Scon, T_Scon_URLR,367.1, hit,1,0
552,4, T_Scon, T_Scon_URLR,734.5, hit,1,0
553,4, T_Scon, T_Scon_URLR,401.9, hit,1,0
554,4, T_Scon, T_Scon_DGRG,309.4, hit,2,0
555,4, T_Sinc, T_Sinc_DRLR,756.8, hit,1,0
556,4, T_Scon, T_Scon_URLR,440.3, hit,1,0
557,4, T_Scon, T_Scon_DGRG,339.7, incorrect,1,1
558,4, T_Sinc, T_Sinc_UGRG,375.1, hit,2,0
559,4, T_Sinc, T_Sinc_DRLR,486.5, hit,1,0
560,4, T_Scon, T_Scon_URLR,354, hit,1,0
561,4, T_Scon, T_Scon_DGRG,293.5, incorrect,1,1
562,4, T_Scon, T_Scon_DGRG,320.9, hit,2,0
563,4, T_Scon, T_Scon_URLR,0.1, miss,3298614,1
564,4, T_Sinc, T_Sinc_DRLR,687.7, hit,1,0
565,4, T_Scon, T_Scon_DGRG,539.2, hit,2,0
566,4, T_Scon, T_Scon_URLR,438.6, hit,1,0
567,4, T_Scon, T_Scon_URLR,514.1, hit,1,0
568,4, T_Scon, T_Scon_DGRG,325.5, hit,2,0
569,4, T_Scon, T_Scon_URLR,352.9, hit,1,0
570,4, T_Sinc, T_Sinc_DRLR,364.4, hit,1,0
571,4, T_Scon, T_Scon_DGRG,887.8, incorrect,1,1
572,4, T_Scon, T_Scon_DGRG,507.3, hit,2,0
573,4, T_Scon, T_Scon_DGRG,306.7, hit,2,0
574,4, T_Scon, T_Scon_DGRG,382.2, hit,2,0
575,4, T_Scon, T_Scon_URLR,501.6, hit,1,0
576,4, T_Scon, T_Scon_URLR,797, hit,1,0
577,5, T_Scon, T_Scon_URLR,413.6, hit,1,0
578,5, T_Scon, T_Scon_DGRG,321.1, hit,2,0
579,5, T_Scon, T_Scon_URLR,240.4, hit,1,0
580,5, T_Scon, T_Scon_DGRG,275.9, hit,2,0
581,5, T_Sinc, T_Sinc_UGRG,147.4, incorrect,1,1
582,5, T_Sinc, T_Sinc_DRLR,254.7, hit,1,0
583,5, T_Scon, T_Scon_URLR,382.2, hit,1,0
584,5, T_Scon, T_Scon_URLR,309.7, hit,1,0
585,5, T_Scon, T_Scon_DGRG,381, hit,2,0
586,5, T_Sinc, T_Sinc_UGRG,312.5, hit,2,0
587,5, T_Scon, T_Scon_URLR,384, hit,1,0
588,5, T_Scon, T_Scon_URLR,371.4, hit,1,0
589,5, T_Sinc, T_Sinc_UGRG,478.8, hit,2,0
590,5, T_Scon, T_Scon_DGRG,474.3, hit,2,0
591,5, T_Sinc, T_Sinc_DRLR,533.7, hit,1,0
592,5, T_Sinc, T_Sinc_DRLR,465.1, hit,1,0
593,5, T_Scon, T_Scon_DGRG,356.6, hit,2,0
594,5, T_Scon, T_Scon_DGRG,440.1, hit,2,0
595,5, T_Scon, T_Scon_DGRG,415.4, hit,2,0
596,5, T_Sinc, T_Sinc_UGRG,334.9, incorrect,1,1
597,5, T_Scon, T_Scon_DGRG,442.3, hit,2,0
598,5, T_Sinc, T_Sinc_UGRG,325.7, hit,2,0
599,5, T_Scon, T_Scon_URLR,333.2, hit,1,0
600,5, T_Scon, T_Scon_URLR,328.7, hit,1,0
601,5, T_Scon, T_Scon_URLR,340, hit,1,0
602,5, T_Scon, T_Scon_DGRG,407.5, hit,2,0
603,5, T_Scon, T_Scon_URLR,531, hit,1,0
604,5, T_Sinc, T_Sinc_DRLR,402.4, hit,1,0
605,5, T_Scon, T_Scon_DGRG,357.8, hit,2,0
606,5, T_Scon, T_Scon_URLR,333.3, hit,1,0
607,5, T_Scon, T_Scon_DGRG,700.6, hit,2,0
608,5, T_Sinc, T_Sinc_UGRG,488.1, hit,2,0
609,5, T_Scon, T_Scon_URLR,495.6, hit,1,0
610,5, T_Scon, T_Scon_DGRG,587, hit,2,0
611,5, T_Sinc, T_Sinc_UGRG,510.4, hit,2,0
612,5, T_Scon, T_Scon_URLR,541.9, hit,1,0
613,5, T_Scon, T_Scon_URLR,373, hit,1,0
614,5, T_Scon, T_Scon_DGRG,312.4, incorrect,1,1
615,5, T_Scon, T_Scon_DGRG,407.9, hit,2,0
616,5, T_Scon, T_Scon_DGRG,291.4, hit,2,0
617,5, T_Scon, T_Scon_DGRG,414.8, hit,2,0
618,5, T_Sinc, T_Sinc_DRLR,466.2, hit,1,0
619,5, T_Sinc, T_Sinc_UGRG,525.7, hit,2,0
620,5, T_Scon, T_Scon_URLR,433.1, hit,1,0
621,5, T_Scon, T_Scon_DGRG,256.5, incorrect,1,1
622,5, T_Scon, T_Scon_URLR,548, hit,1,0
623,5, T_Scon, T_Scon_DGRG,319.4, hit,2,0
624,5, T_Scon, T_Scon_DGRG,522.8, hit,2,0
625,5, T_Scon, T_Scon_DGRG,342.3, hit,2,0
626,5, T_Scon, T_Scon_URLR,433.7, hit,1,0
627,5, T_Scon, T_Scon_DGRG,417.2, hit,2,0
628,5, T_Scon, T_Scon_URLR,304.6, hit,1,0
629,5, T_Scon, T_Scon_DGRG,384, hit,2,0
630,5, T_Scon, T_Scon_DGRG,443.5, hit,2,0
631,5, T_Scon, T_Scon_DGRG,418.9, hit,2,0
632,5, T_Sinc, T_Sinc_DRLR,878.4, hit,1,2
633,5, T_Scon, T_Scon_URLR,381.8, hit,1,0
634,5, T_Scon, T_Scon_URLR,537.3, hit,1,0
635,5, T_Scon, T_Scon_URLR,300.7, hit,1,0
636,5, T_Sinc, T_Sinc_UGRG,432.1, hit,2,0
637,5, T_Scon, T_Scon_URLR,427.6, hit,1,0
638,5, T_Sinc, T_Sinc_UGRG,543, hit,2,0
639,5, T_Scon, T_Scon_URLR,570.4, hit,1,0
640,5, T_Scon, T_Scon_DGRG,617.9, hit,2,0
641,5, T_Scon, T_Scon_URLR,293.3, hit,1,0
642,5, T_Sinc, T_Sinc_UGRG,496.7, incorrect,1,1
643,5, T_Scon, T_Scon_DGRG,412.2, hit,2,0
644,5, T_Scon, T_Scon_DGRG,483.6, hit,2,0
645,5, T_Scon, T_Scon_URLR,567, hit,1,0
646,5, T_Scon, T_Scon_DGRG,1378.5, incorrect,1,1
647,5, T_Scon, T_Scon_URLR,950, hit,1,2
648,5, T_Scon, T_Scon_DGRG,321.3, hit,2,0
649,5, T_Scon, T_Scon_URLR,292.5, hit,1,0
650,5, T_Sinc, T_Sinc_DRLR,312, incorrect,2,1
651,5, T_Sinc, T_Sinc_UGRG,403.4, hit,2,0
652,5, T_Scon, T_Scon_DGRG,422.8, hit,2,0
653,5, T_Scon, T_Scon_DGRG,410.3, hit,2,0
654,5, T_Sinc, T_Sinc_DRLR,517.7, hit,1,0
655,5, T_Scon, T_Scon_URLR,277.1, hit,1,0
656,5, T_Scon, T_Scon_URLR,284.6, hit,1,0
657,5, T_Scon, T_Scon_DGRG,680.1, hit,2,0
658,5, T_Scon, T_Scon_URLR,407.4, hit,1,0
659,5, T_Sinc, T_Sinc_DRLR,446.9, hit,1,0
660,5, T_Scon, T_Scon_DGRG,334.4, hit,2,0
661,5, T_Scon, T_Scon_URLR,449.7, hit,1,0
662,5, T_Scon, T_Scon_DGRG,381.2, hit,2,0
663,5, T_Scon, T_Scon_URLR,136.7, hit,1,0
664,5, T_Scon, T_Scon_DGRG,292, hit,2,0
665,5, T_Scon, T_Scon_URLR,559.5, hit,1,0
666,5, T_Sinc, T_Sinc_DRLR,339, incorrect,2,1
667,5, T_Scon, T_Scon_DGRG,142.5, hit,2,0
668,5, T_Sinc, T_Sinc_UGRG,33.8, hit,2,0
669,5, T_Scon, T_Scon_URLR,345.3, hit,1,0
670,5, T_Sinc, T_Sinc_UGRG,692.8, incorrect,1,1
671,5, T_Scon, T_Scon_DGRG,368.2, incorrect,1,1
672,5, T_Scon, T_Scon_URLR,339.7, hit,1,0
673,5, T_Sinc, T_Sinc_DRLR,967.1, hit,1,2
674,5, T_Scon, T_Scon_URLR,502.4, hit,1,0
675,5, T_Scon, T_Scon_DGRG,361.9, hit,2,0
676,5, T_Scon, T_Scon_DGRG,413.4, hit,2,0
677,5, T_Scon, T_Scon_URLR,440.7, hit,1,0
678,5, T_Scon, T_Scon_URLR,324.2, incorrect,2,1
679,5, T_Scon, T_Scon_DGRG,571.7, hit,2,0
680,5, T_Scon, T_Scon_URLR,451.1, hit,1,0
681,5, T_Scon, T_Scon_URLR,478.5, incorrect,2,1
682,5, T_Scon, T_Scon_URLR,330, hit,1,0
683,5, T_Sinc, T_Sinc_DRLR,569.4, hit,1,0
684,5, T_Sinc, T_Sinc_UGRG,444.8, hit,2,0
685,5, T_Scon, T_Scon_DGRG,388, hit,2,0
686,5, T_Scon, T_Scon_URLR,291.4, hit,1,0
687,5, T_Sinc, T_Sinc_DRLR,378.9, hit,1,0
688,5, T_Scon, T_Scon_URLR,326.3, hit,1,0
689,5, T_Scon, T_Scon_DGRG,393.7, hit,2,0
690,5, T_Sinc, T_Sinc_DRLR,533.1, hit,1,0
691,5, T_Scon, T_Scon_URLR,296.6, hit,1,0
692,5, T_Scon, T_Scon_URLR,324, hit,1,0
693,5, T_Scon, T_Scon_DGRG,267.5, hit,2,0
694,5, T_Scon, T_Scon_URLR,478.9, hit,1,0
695,5, T_Scon, T_Scon_DGRG,290.4, hit,2,0
696,5, T_Scon, T_Scon_DGRG,389.8, hit,2,0
697,5, T_Sinc, T_Sinc_DRLR,389.3, hit,1,0
698,5, T_Scon, T_Scon_DGRG,300.7, hit,2,0
699,5, T_Scon, T_Scon_DGRG,300.1, hit,2,0
700,5, T_Sinc, T_Sinc_DRLR,359.6, hit,1,0
701,5, T_Scon, T_Scon_DGRG,431, hit,2,0
702,5, T_Scon, T_Scon_DGRG,270.4, hit,2,0
703,5, T_Scon, T_Scon_DGRG,441.8, hit,2,0
704,5, T_Sinc, T_Sinc_UGRG,373.3, hit,2,0
705,5, T_Sinc, T_Sinc_UGRG,316.7, hit,2,0
706,5, T_Sinc, T_Sinc_UGRG,284.2, hit,2,0
707,5, T_Scon, T_Scon_DGRG,303.6, hit,2,0
708,5, T_Scon, T_Scon_DGRG,291, incorrect,1,1
709,5, T_Scon, T_Scon_URLR,342.5, hit,1,0
710,5, T_Scon, T_Scon_URLR,306, hit,1,0
711,5, T_Scon, T_Scon_DGRG,257.4, hit,2,0
712,5, T_Scon, T_Scon_URLR,1020.8, hit,1,2
713,5, T_Scon, T_Scon_URLR,296.3, hit,1,0
714,5, T_Sinc, T_Sinc_DRLR,291.6, hit,1,0
715,5, T_Scon, T_Scon_URLR,307.1, hit,1,0
716,5, T_Sinc, T_Sinc_DRLR,438.5, hit,1,0
717,5, T_Scon, T_Scon_URLR,322, hit,1,0
718,5, T_Scon, T_Scon_URLR,453.4, hit,1,0
719,5, T_Scon, T_Scon_URLR,388.9, hit,1,0
720,5, T_Scon, T_Scon_DGRG,840.2, hit,2,0
721,6, T_Scon, T_Scon_URLR,453.2, hit,1,0
722,6, T_Scon, T_Scon_DGRG,268.6, hit,2,0
723,6, T_Scon, T_Scon_DGRG,372.1, hit,2,0
724,6, T_Scon, T_Scon_DGRG,391.5, hit,2,0
725,6, T_Scon, T_Scon_URLR,258.9, hit,1,0
726,6, T_Scon, T_Scon_DGRG,262.4, hit,2,0
727,6, T_Scon, T_Scon_DGRG,301.8, hit,2,0
728,6, T_Sinc, T_Sinc_DRLR,441.3, hit,1,0
729,6, T_Sinc, T_Sinc_DRLR,152.6, incorrect,2,1
730,6, T_Sinc, T_Sinc_UGRG,332.1, hit,2,0
731,6, T_Scon, T_Scon_URLR,575.5, hit,1,0
732,6, T_Sinc, T_Sinc_DRLR,338.9, hit,1,0
733,6, T_Scon, T_Scon_DGRG,386.4, hit,2,0
734,6, T_Scon, T_Scon_DGRG,333.8, hit,2,0
735,6, T_Scon, T_Scon_DGRG,349.3, hit,2,0
736,6, T_Sinc, T_Sinc_DRLR,508.7, hit,1,0
737,6, T_Scon, T_Scon_URLR,384.2, hit,1,0
738,6, T_Scon, T_Scon_URLR,335.5, hit,1,0
739,6, T_Scon, T_Scon_DGRG,283, hit,2,0
740,6, T_Sinc, T_Sinc_UGRG,438.5, hit,2,0
741,6, T_Scon, T_Scon_DGRG,381.9, hit,2,0
742,6, T_Scon, T_Scon_DGRG,333.3, hit,2,0
743,6, T_Scon, T_Scon_DGRG,328.8, hit,2,0
744,6, T_Scon, T_Scon_DGRG,516.2, hit,2,0
745,6, T_Scon, T_Scon_DGRG,267.6, hit,2,0
746,6, T_Sinc, T_Sinc_DRLR,347.1, hit,1,0
747,6, T_Sinc, T_Sinc_UGRG,470.6, hit,2,0
748,6, T_Scon, T_Scon_DGRG,569.9, hit,2,0
749,6, T_Scon, T_Scon_DGRG,333.4, hit,2,0
750,6, T_Scon, T_Scon_URLR,320.9, hit,1,0
751,6, T_Scon, T_Scon_URLR,484.2, hit,1,0
752,6, T_Scon, T_Scon_URLR,403.7, hit,1,0
753,6, T_Scon, T_Scon_DGRG,335.2, hit,2,0
754,6, T_Sinc, T_Sinc_UGRG,578.6, incorrect,1,1
755,6, T_Sinc, T_Sinc_DRLR,322, hit,1,0
756,6, T_Scon, T_Scon_DGRG,477.5, hit,2,0
757,6, T_Scon, T_Scon_URLR,444.7, hit,1,0
758,6, T_Scon, T_Scon_DGRG,352, hit,2,0
759,6, T_Scon, T_Scon_URLR,299.5, hit,1,0
760,6, T_Scon, T_Scon_DGRG,567, hit,2,0
761,6, T_Sinc, T_Sinc_UGRG,306.3, hit,2,0
762,6, T_Scon, T_Scon_URLR,325.8, hit,1,0
763,6, T_Scon, T_Scon_URLR,353.3, hit,1,0
764,6, T_Scon, T_Scon_URLR,340.6, hit,1,0
765,6, T_Scon, T_Scon_DGRG,248.1, hit,2,0
766,6, T_Sinc, T_Sinc_DRLR,435.6, hit,1,0
767,6, T_Scon, T_Scon_DGRG,435, hit,2,0
768,6, T_Scon, T_Scon_DGRG,350.4, hit,2,0
769,6, T_Sinc, T_Sinc_UGRG,393.8, hit,2,0
770,6, T_Scon, T_Scon_DGRG,229.3, hit,2,0
771,6, T_Scon, T_Scon_URLR,288.7, hit,1,0
772,6, T_Scon, T_Scon_URLR,356.1, hit,1,0
773,6, T_Sinc, T_Sinc_UGRG,463.6, hit,2,0
774,6, T_Scon, T_Scon_URLR,575.1, hit,1,0
775,6, T_Scon, T_Scon_URLR,334.4, hit,1,0
776,6, T_Scon, T_Scon_URLR,625.9, hit,1,0
777,6, T_Sinc, T_Sinc_UGRG,497.4, hit,2,0
778,6, T_Scon, T_Scon_URLR,396.7, hit,1,0
779,6, T_Scon, T_Scon_URLR,1404.2, hit,1,2
780,6, T_Sinc, T_Sinc_UGRG,363.7, hit,2,0
781,6, T_Scon, T_Scon_URLR,447, hit,1,0
782,6, T_Scon, T_Scon_DGRG,358.5, incorrect,1,1
783,6, T_Scon, T_Scon_DGRG,478, hit,2,0
784,6, T_Sinc, T_Sinc_DRLR,385.4, hit,1,0
785,6, T_Scon, T_Scon_URLR,340.8, hit,1,0
786,6, T_Scon, T_Scon_DGRG,296.3, hit,2,0
787,6, T_Scon, T_Scon_URLR,439.7, hit,1,0
788,6, T_Scon, T_Scon_DGRG,367.1, hit,2,0
789,6, T_Scon, T_Scon_URLR,310.6, hit,1,0
790,6, T_Scon, T_Scon_DGRG,462, hit,2,0
791,6, T_Scon, T_Scon_DGRG,305.4, hit,2,0
792,6, T_Scon, T_Scon_DGRG,372.9, hit,2,0
793,6, T_Scon, T_Scon_DGRG,460.1, hit,2,0
794,6, T_Sinc, T_Sinc_DRLR,375.5, incorrect,2,1
795,6, T_Sinc, T_Sinc_UGRG,598.9, hit,2,0
796,6, T_Scon, T_Scon_URLR,318.4, hit,1,0
797,6, T_Scon, T_Scon_URLR,329.8, hit,1,0
798,6, T_Sinc, T_Sinc_DRLR,341.2, incorrect,2,1
799,6, T_Scon, T_Scon_URLR,400.7, hit,1,0
800,6, T_Scon, T_Scon_DGRG,404.2, hit,2,0
801,6, T_Scon, T_Scon_URLR,331.5, hit,1,0
802,6, T_Scon, T_Scon_URLR,443, hit,1,0
803,6, T_Sinc, T_Sinc_DRLR,350.4, hit,1,0
804,6, T_Scon, T_Scon_DGRG,361.9, hit,2,0
805,6, T_Scon, T_Scon_DGRG,325.3, hit,2,0
806,6, T_Scon, T_Scon_URLR,368.8, hit,1,0
807,6, T_Scon, T_Scon_URLR,328.2, hit,1,0
808,6, T_Scon, T_Scon_URLR,459.6, hit,1,0
809,6, T_Scon, T_Scon_URLR,611.1, hit,1,0
810,6, T_Scon, T_Scon_DGRG,454.5, hit,2,0
811,6, T_Scon, T_Scon_DGRG,137.9, incorrect,1,1
812,6, T_Scon, T_Scon_URLR,245.5, hit,1,0
813,6, T_Scon, T_Scon_URLR,456.8, hit,1,0
814,6, T_Scon, T_Scon_DGRG,372.3, hit,2,0
815,6, T_Sinc, T_Sinc_UGRG,347.7, hit,2,0
816,6, T_Scon, T_Scon_URLR,387.1, hit,1,0
817,6, T_Scon, T_Scon_DGRG,1234.6, incorrect,1,1
818,6, T_Scon, T_Scon_DGRG,454, hit,2,0
819,6, T_Scon, T_Scon_URLR,353.4, hit,1,0
820,6, T_Scon, T_Scon_DGRG,700.9, hit,2,0
821,6, T_Scon, T_Scon_DGRG,472.3, hit,2,0
822,6, T_Scon, T_Scon_URLR,11.7, hit,1,0
823,6, T_Sinc, T_Sinc_UGRG,143.2, incorrect,1,1
824,6, T_Sinc, T_Sinc_DRLR,574.6, hit,1,0
825,6, T_Scon, T_Scon_URLR,1018, hit,1,2
826,6, T_Scon, T_Scon_DGRG,533.5, hit,2,0
827,6, T_Sinc, T_Sinc_DRLR,513, hit,1,0
828,6, T_Scon, T_Scon_URLR,360.4, hit,1,0
829,6, T_Scon, T_Scon_DGRG,415.5, hit,2,0
830,6, T_Sinc, T_Sinc_UGRG,339, hit,2,0
831,6, T_Scon, T_Scon_URLR,322.4, hit,1,0
832,6, T_Scon, T_Scon_URLR,357.8, hit,1,0
833,6, T_Scon, T_Scon_DGRG,257.3, hit,2,0
834,6, T_Scon, T_Scon_URLR,332.7, hit,1,0
835,6, T_Sinc, T_Sinc_UGRG,432.2, hit,2,0
836,6, T_Scon, T_Scon_URLR,363.6, hit,1,0
837,6, T_Scon, T_Scon_DGRG,311.1, incorrect,1,1
838,6, T_Sinc, T_Sinc_UGRG,450.6, hit,2,0
839,6, T_Sinc, T_Sinc_DRLR,345.9, hit,1,0
840,6, T_Scon, T_Scon_DGRG,317.4, hit,2,0
841,6, T_Scon, T_Scon_DGRG,372.8, hit,2,0
842,6, T_Sinc, T_Sinc_UGRG,584.2, incorrect,1,1
843,6, T_Scon, T_Scon_URLR,687.7, incorrect,2,1
844,6, T_Scon, T_Scon_DGRG,303.1, hit,2,0
845,6, T_Scon, T_Scon_URLR,458.5, hit,1,0
846,6, T_Scon, T_Scon_URLR,582, hit,1,0
847,6, T_Scon, T_Scon_URLR,709.4, hit,1,0
848,6, T_Scon, T_Scon_URLR,864.8, incorrect,2,1
849,6, T_Scon, T_Scon_DGRG,668.3, incorrect,1,1
850,6, T_Sinc, T_Sinc_UGRG,671.8, hit,2,0
851,6, T_Sinc, T_Sinc_UGRG,411.1, hit,2,0
852,6, T_Scon, T_Scon_URLR,426.6, hit,1,0
853,6, T_Scon, T_Scon_URLR,534.1, hit,1,0
854,6, T_Sinc, T_Sinc_DRLR,453.4, hit,1,0
855,6, T_Scon, T_Scon_DGRG,728.9, hit,2,0
856,6, T_Scon, T_Scon_URLR,500.4, hit,1,0
857,6, T_Scon, T_Scon_DGRG,619.8, hit,2,0
858,6, T_Scon, T_Scon_DGRG,479.2, hit,2,0
859,6, T_Scon, T_Scon_DGRG,722.7, incorrect,1,1
860,6, T_Scon, T_Scon_URLR,414.2, hit,1,0
861,6, T_Scon, T_Scon_URLR,361.5, hit,1,0
862,6, T_Sinc, T_Sinc_DRLR,525, hit,1,0
863,6, T_Sinc, T_Sinc_DRLR,404.5, hit,1,0
864,6, T_Sinc, T_Sinc_DRLR,435.8, hit,1,0
865,7, T_Scon, T_Scon_DGRG,465.1, hit,2,0
866,7, T_Sinc, T_Sinc_DRLR,404.4, hit,1,0
867,7, T_Sinc, T_Sinc_DRLR,423.9, hit,1,0
868,7, T_Sinc, T_Sinc_UGRG,299.4, incorrect,1,1
869,7, T_Sinc, T_Sinc_DRLR,254.7, hit,1,0
870,7, T_Sinc, T_Sinc_UGRG,330.2, hit,2,0
871,7, T_Sinc, T_Sinc_DRLR,341.7, hit,1,0
872,7, T_Sinc, T_Sinc_DRLR,385, hit,1,0
873,7, T_Sinc, T_Sinc_DRLR,348.5, hit,1,0
874,7, T_Scon, T_Scon_DGRG,380, hit,2,0
875,7, T_Sinc, T_Sinc_DRLR,447.3, hit,1,0
876,7, T_Scon, T_Scon_URLR,358.8, hit,1,0
877,7, T_Sinc, T_Sinc_DRLR,410.3, hit,1,0
878,7, T_Sinc, T_Sinc_DRLR,421.7, hit,1,0
879,7, T_Sinc, T_Sinc_DRLR,477.1, hit,1,0
880,7, T_Sinc, T_Sinc_DRLR,508.6, hit,1,0
881,7, T_Sinc, T_Sinc_DRLR,328.1, hit,1,0
882,7, T_Sinc, T_Sinc_DRLR,351.4, hit,1,0
883,7, T_Sinc, T_Sinc_UGRG,458.9, hit,2,0
884,7, T_Sinc, T_Sinc_DRLR,482.4, hit,1,0
885,7, T_Sinc, T_Sinc_DRLR,329.7, hit,1,0
886,7, T_Sinc, T_Sinc_DRLR,397.2, hit,1,0
887,7, T_Sinc, T_Sinc_DRLR,324.6, hit,1,0
888,7, T_Sinc, T_Sinc_DRLR,320.1, hit,1,0
889,7, T_Scon, T_Scon_URLR,479.5, hit,1,0
890,7, T_Scon, T_Scon_DGRG,363, hit,2,0
891,7, T_Sinc, T_Sinc_UGRG,598.4, hit,2,0
892,7, T_Scon, T_Scon_DGRG,305.8, incorrect,1,1
893,7, T_Sinc, T_Sinc_UGRG,433.3, hit,2,0
894,7, T_Sinc, T_Sinc_DRLR,444.7, hit,1,0
895,7, T_Scon, T_Scon_URLR,364.1, hit,1,0
896,7, T_Sinc, T_Sinc_UGRG,383.6, incorrect,1,1
897,7, T_Sinc, T_Sinc_UGRG,467, hit,2,0
898,7, T_Sinc, T_Sinc_DRLR,398.4, hit,1,0
899,7, T_Sinc, T_Sinc_UGRG,353.9, hit,2,0
900,7, T_Sinc, T_Sinc_DRLR,613.4, hit,1,0
901,7, T_Scon, T_Scon_DGRG,508.5, hit,2,0
902,7, T_Sinc, T_Sinc_UGRG,423.9, hit,2,0
903,7, T_Scon, T_Scon_URLR,299.4, hit,1,0
904,7, T_Sinc, T_Sinc_UGRG,454.8, hit,2,0
905,7, T_Sinc, T_Sinc_UGRG,454.2, hit,2,0
906,7, T_Sinc, T_Sinc_UGRG,353.7, hit,2,0
907,7, T_Sinc, T_Sinc_UGRG,357.1, hit,2,0
908,7, T_Sinc, T_Sinc_DRLR,520.5, hit,1,0
909,7, T_Sinc, T_Sinc_DRLR,332, hit,1,0
910,7, T_Sinc, T_Sinc_UGRG,875.4, hit,2,2
911,7, T_Sinc, T_Sinc_UGRG,382.9, hit,2,0
912,7, T_Sinc, T_Sinc_DRLR,334.3, hit,1,0
913,7, T_Scon, T_Scon_DGRG,397.7, hit,2,0
914,7, T_Sinc, T_Sinc_DRLR,541.2, hit,1,0
915,7, T_Sinc, T_Sinc_UGRG,312.6, incorrect,1,1
916,7, T_Sinc, T_Sinc_UGRG,372, hit,2,0
917,7, T_Sinc, T_Sinc_DRLR,407.5, hit,1,0
918,7, T_Sinc, T_Sinc_UGRG,506.9, hit,2,0
919,7, T_Sinc, T_Sinc_UGRG,338.3, hit,2,0
920,7, T_Sinc, T_Sinc_UGRG,345.8, hit,2,0
921,7, T_Scon, T_Scon_DGRG,261.3, hit,2,0
922,7, T_Sinc, T_Sinc_DRLR,380.7, hit,1,0
923,7, T_Sinc, T_Sinc_DRLR,360.1, hit,1,0
924,7, T_Sinc, T_Sinc_UGRG,383.6, hit,2,0
925,7, T_Sinc, T_Sinc_DRLR,407, hit,1,0
926,7, T_Sinc, T_Sinc_UGRG,418.4, incorrect,1,1
927,7, T_Scon, T_Scon_DGRG,401.9, incorrect,1,1
928,7, T_Scon, T_Scon_URLR,381.3, incorrect,2,1
929,7, T_Scon, T_Scon_URLR,524.7, incorrect,2,1
930,7, T_Sinc, T_Sinc_UGRG,472.2, incorrect,1,1
931,7, T_Sinc, T_Sinc_UGRG,419.7, incorrect,1,1
932,7, T_Sinc, T_Sinc_UGRG,403, incorrect,1,1
933,7, T_Sinc, T_Sinc_UGRG,442.5, hit,2,0
934,7, T_Scon, T_Scon_URLR,398, hit,1,0
935,7, T_Sinc, T_Sinc_UGRG,393.3, hit,2,0
936,7, T_Sinc, T_Sinc_DRLR,440.8, hit,1,0
937,7, T_Sinc, T_Sinc_UGRG,384, incorrect,1,1
938,7, T_Sinc, T_Sinc_DRLR,287.4, hit,1,0
939,7, T_Sinc, T_Sinc_UGRG,494.8, hit,2,0
940,7, T_Sinc, T_Sinc_UGRG,338.3, hit,2,0
941,7, T_Sinc, T_Sinc_DRLR,369.7, hit,1,0
942,7, T_Sinc, T_Sinc_DRLR,293.1, hit,1,0
943,7, T_Sinc, T_Sinc_DRLR,296.6, hit,1,0
944,7, T_Sinc, T_Sinc_UGRG,380.1, hit,2,0
945,7, T_Scon, T_Scon_URLR,475.5, hit,1,0
946,7, T_Sinc, T_Sinc_DRLR,634.9, incorrect,2,1
947,7, T_Scon, T_Scon_DGRG,294.4, hit,2,0
948,7, T_Sinc, T_Sinc_DRLR,625.8, hit,1,0
949,7, T_Sinc, T_Sinc_DRLR,493.2, hit,1,0
950,7, T_Sinc, T_Sinc_UGRG,1084.7, incorrect,1,1
951,7, T_Scon, T_Scon_URLR,576, hit,1,0
952,7, T_Scon, T_Scon_URLR,519.5, hit,1,0
953,7, T_Sinc, T_Sinc_DRLR,587, hit,1,0
954,7, T_Sinc, T_Sinc_UGRG,410.5, hit,2,0
955,7, T_Sinc, T_Sinc_DRLR,317.8, hit,1,0
956,7, T_Sinc, T_Sinc_UGRG,369.3, hit,2,0
957,7, T_Sinc, T_Sinc_DRLR,308.8, hit,1,0
958,7, T_Sinc, T_Sinc_DRLR,1152.1, hit,1,2
959,7, T_Sinc, T_Sinc_DRLR,303.6, incorrect,2,1
960,7, T_Scon, T_Scon_DGRG,275, hit,2,0
961,7, T_Scon, T_Scon_URLR,470.4, hit,1,0
962,7, T_Scon, T_Scon_URLR,369.9, hit,1,0
963,7, T_Sinc, T_Sinc_UGRG,477.4, hit,2,0
964,7, T_Scon, T_Scon_DGRG,488.8, incorrect,1,1
965,7, T_Scon, T_Scon_DGRG,468.2, hit,2,0
966,7, T_Sinc, T_Sinc_DRLR,0.2, miss,2521332,1
967,7, T_Sinc, T_Sinc_DRLR,511.1, hit,1,0
968,7, T_Sinc, T_Sinc_UGRG,334.5, hit,2,0
969,7, T_Sinc, T_Sinc_UGRG,338, hit,2,0
970,7, T_Sinc, T_Sinc_UGRG,345.4, hit,2,0
971,7, T_Scon, T_Scon_URLR,420.8, hit,1,0
972,7, T_Sinc, T_Sinc_DRLR,352.3, hit,1,0
973,7, T_Sinc, T_Sinc_UGRG,375.5, hit,2,0
974,7, T_Scon, T_Scon_DGRG,394.9, hit,2,0
975,7, T_Sinc, T_Sinc_DRLR,398.3, hit,1,0
976,7, T_Sinc, T_Sinc_DRLR,305.8, hit,1,0
977,7, T_Sinc, T_Sinc_UGRG,493.3, hit,2,0
978,7, T_Sinc, T_Sinc_UGRG,312.6, hit,2,0
979,7, T_Scon, T_Scon_DGRG,268.1, hit,2,0
980,7, T_Scon, T_Scon_URLR,331.6, hit,1,0
981,7, T_Scon, T_Scon_URLR,322.9, hit,1,0
982,7, T_Sinc, T_Sinc_UGRG,846.4, hit,2,0
983,7, T_Sinc, T_Sinc_UGRG,401.9, hit,2,0
984,7, T_Scon, T_Scon_URLR,445.2, hit,1,0
985,7, T_Sinc, T_Sinc_UGRG,508.7, hit,2,0
986,7, T_Sinc, T_Sinc_DRLR,516.2, hit,1,0
987,7, T_Sinc, T_Sinc_UGRG,923.5, hit,2,2
988,7, T_Sinc, T_Sinc_UGRG,495, hit,2,0
989,7, T_Sinc, T_Sinc_UGRG,618.5, hit,2,0
990,7, T_Sinc, T_Sinc_DRLR,349.9, hit,1,0
991,7, T_Sinc, T_Sinc_DRLR,449.3, incorrect,2,1
992,7, T_Sinc, T_Sinc_UGRG,424.7, hit,2,0
993,7, T_Sinc, T_Sinc_UGRG,788.2, hit,2,0
994,7, T_Scon, T_Scon_DGRG,591.7, hit,2,0
995,7, T_Sinc, T_Sinc_UGRG,411, hit,2,0
996,7, T_Sinc, T_Sinc_DRLR,338.5, hit,1,0
997,7, T_Scon, T_Scon_DGRG,398, hit,2,0
998,7, T_Sinc, T_Sinc_DRLR,645.3, hit,1,0
999,7, T_Scon, T_Scon_URLR,1088.8, incorrect,2,1
1000,7, T_Scon, T_Scon_DGRG,284.3, hit,2,0
1001,7, T_Sinc, T_Sinc_UGRG,519.6, hit,2,0
1002,7, T_Sinc, T_Sinc_UGRG,443.1, hit,2,0
1003,7, T_Sinc, T_Sinc_UGRG,382.6, hit,2,0
1004,7, T_Sinc, T_Sinc_DRLR,542, hit,1,0
1005,7, T_Scon, T_Scon_DGRG,945.4, incorrect,1,1
1006,7, T_Sinc, T_Sinc_DRLR,408.8, hit,1,0
1007,7, T_Scon, T_Scon_URLR,412.3, hit,1,0
1008,7, T_Sinc, T_Sinc_UGRG,439.7, hit,2,0
1009,8, T_Sinc, T_Sinc_DRLR,773.8, hit,1,0
1010,8, T_Sinc, T_Sinc_DRLR,361.1, hit,1,0
1011,8, T_Sinc, T_Sinc_DRLR,328.5, hit,1,0
1012,8, T_Scon, T_Scon_URLR,476.1, hit,1,0
1013,8, T_Sinc, T_Sinc_DRLR,287.4, hit,1,0
1014,8, T_Scon, T_Scon_DGRG,530.9, hit,2,0
1015,8, T_Sinc, T_Sinc_UGRG,282.3, hit,2,0
1016,8, T_Sinc, T_Sinc_DRLR,437.8, hit,1,0
1017,8, T_Sinc, T_Sinc_UGRG,381.2, hit,2,0
1018,8, T_Sinc, T_Sinc_DRLR,388.6, hit,1,0
1019,8, T_Sinc, T_Sinc_DRLR,332.1, hit,1,0
1020,8, T_Sinc, T_Sinc_UGRG,355.5, hit,2,0
1021,8, T_Sinc, T_Sinc_DRLR,423, hit,1,0
1022,8, T_Sinc, T_Sinc_DRLR,362.4, hit,1,0
1023,8, T_Sinc, T_Sinc_UGRG,333.8, hit,2,0
1024,8, T_Sinc, T_Sinc_UGRG,465.3, hit,2,0
1025,8, T_Sinc, T_Sinc_DRLR,280.7, incorrect,2,1
1026,8, T_Scon, T_Scon_URLR,420.1, hit,1,0
1027,8, T_Sinc, T_Sinc_UGRG,471.6, hit,2,0
1028,8, T_Scon, T_Scon_URLR,359, hit,1,0
1029,8, T_Sinc, T_Sinc_DRLR,458.4, hit,1,0
1030,8, T_Sinc, T_Sinc_UGRG,293.9, hit,2,0
1031,8, T_Sinc, T_Sinc_UGRG,337.4, hit,2,0
1032,8, T_Sinc, T_Sinc_DRLR,396.7, hit,1,0
1033,8, T_Sinc, T_Sinc_UGRG,332.2, hit,2,0
1034,8, T_Sinc, T_Sinc_UGRG,371.7, hit,2,0
1035,8, T_Sinc, T_Sinc_UGRG,603, hit,2,0
1036,8, T_Sinc, T_Sinc_DRLR,326.5, hit,1,0
1037,8, T_Sinc, T_Sinc_DRLR,450, hit,1,0
1038,8, T_Sinc, T_Sinc_DRLR,401.4, incorrect,2,1
1039,8, T_Sinc, T_Sinc_DRLR,744.8, hit,1,0
1040,8, T_Sinc, T_Sinc_DRLR,624.3, hit,1,0
1041,8, T_Scon, T_Scon_DGRG,403.7, hit,2,0
1042,8, T_Sinc, T_Sinc_UGRG,375.1, hit,2,0
1043,8, T_Sinc, T_Sinc_DRLR,426.6, hit,1,0
1044,8, T_Sinc, T_Sinc_UGRG,710, hit,2,0
1045,8, T_Sinc, T_Sinc_DRLR,613.2, hit,1,0
1046,8, T_Scon, T_Scon_URLR,276.6, incorrect,2,1
1047,8, T_Scon, T_Scon_DGRG,412.1, hit,2,0
1048,8, T_Scon, T_Scon_URLR,383.4, hit,1,0
1049,8, T_Sinc, T_Sinc_DRLR,338.9, hit,1,0
1050,8, T_Sinc, T_Sinc_DRLR,302.4, hit,1,0
1051,8, T_Sinc, T_Sinc_DRLR,305.8, hit,1,0
1052,8, T_Sinc, T_Sinc_UGRG,429.2, hit,2,0
1053,8, T_Scon, T_Scon_DGRG,392.7, hit,2,0
1054,8, T_Sinc, T_Sinc_DRLR,540.1, hit,1,0
1055,8, T_Sinc, T_Sinc_DRLR,831.5, hit,1,0
1056,8, T_Scon, T_Scon_DGRG,419, hit,2,0
1057,8, T_Scon, T_Scon_URLR,378.4, hit,1,0
1058,8, T_Sinc, T_Sinc_DRLR,901.8, hit,1,2
1059,8, T_Sinc, T_Sinc_DRLR,425.2, hit,1,0
1060,8, T_Sinc, T_Sinc_UGRG,540.7, hit,2,0
1061,8, T_Scon, T_Scon_URLR,412.2, hit,1,0
1062,8, T_Sinc, T_Sinc_UGRG,539.6, hit,2,0
1063,8, T_Sinc, T_Sinc_DRLR,519, hit,1,0
1064,8, T_Scon, T_Scon_DGRG,466.4, hit,2,0
1065,8, T_Scon, T_Scon_URLR,397.8, hit,1,0
1066,8, T_Sinc, T_Sinc_DRLR,361.3, incorrect,2,1
1067,8, T_Sinc, T_Sinc_DRLR,408.8, hit,1,0
1068,8, T_Scon, T_Scon_URLR,320.1, hit,1,0
1069,8, T_Sinc, T_Sinc_UGRG,379.6, hit,2,0
1070,8, T_Sinc, T_Sinc_UGRG,319.1, hit,2,0
1071,8, T_Scon, T_Scon_URLR,334.5, hit,1,0
1072,8, T_Sinc, T_Sinc_UGRG,478, hit,2,0
1073,8, T_Sinc, T_Sinc_DRLR,669.4, hit,1,0
1074,8, T_Sinc, T_Sinc_UGRG,344.8, hit,2,0
1075,8, T_Sinc, T_Sinc_DRLR,340.2, hit,1,0
1076,8, T_Sinc, T_Sinc_UGRG,351.7, hit,2,0
1077,8, T_Scon, T_Scon_URLR,507.2, hit,1,0
1078,8, T_Sinc, T_Sinc_UGRG,318.5, incorrect,1,1
1079,8, T_Sinc, T_Sinc_DRLR,514, hit,1,0
1080,8, T_Scon, T_Scon_URLR,0.1, miss,1711886,1
1081,8, T_Sinc, T_Sinc_UGRG,552.7, incorrect,1,1
1082,8, T_Scon, T_Scon_URLR,348, hit,1,0
1083,8, T_Sinc, T_Sinc_UGRG,783.5, hit,2,0
1084,8, T_Scon, T_Scon_DGRG,386.9, hit,2,0
1085,8, T_Scon, T_Scon_DGRG,318.3, hit,2,0
1086,8, T_Sinc, T_Sinc_DRLR,425.8, hit,1,0
1087,8, T_Scon, T_Scon_URLR,429.3, hit,1,0
1088,8, T_Sinc, T_Sinc_UGRG,448.6, hit,2,0
1089,8, T_Sinc, T_Sinc_DRLR,388.1, hit,1,0
1090,8, T_Sinc, T_Sinc_UGRG,495.6, hit,2,0
1091,8, T_Sinc, T_Sinc_UGRG,326.9, hit,2,0
1092,8, T_Scon, T_Scon_DGRG,426.4, hit,2,0
1093,8, T_Scon, T_Scon_DGRG,285.9, incorrect,1,1
1094,8, T_Sinc, T_Sinc_DRLR,309.4, hit,1,0
1095,8, T_Sinc, T_Sinc_DRLR,408.7, hit,1,0
1096,8, T_Sinc, T_Sinc_UGRG,552.3, hit,2,0
1097,8, T_Sinc, T_Sinc_UGRG,359.7, hit,2,0
1098,8, T_Sinc, T_Sinc_UGRG,427, hit,2,0
1099,8, T_Sinc, T_Sinc_UGRG,430.5, hit,2,0
1100,8, T_Sinc, T_Sinc_DRLR,505.9, hit,1,0
1101,8, T_Sinc, T_Sinc_UGRG,449.4, hit,2,0
1102,8, T_Sinc, T_Sinc_UGRG,356.8, hit,2,0
1103,8, T_Sinc, T_Sinc_UGRG,368.2, hit,2,0
1104,8, T_Sinc, T_Sinc_DRLR,403.7, hit,1,0
1105,8, T_Scon, T_Scon_DGRG,783.1, hit,2,0
1106,8, T_Sinc, T_Sinc_UGRG,390.6, hit,2,0
1107,8, T_Sinc, T_Sinc_UGRG,298, hit,2,0
1108,8, T_Sinc, T_Sinc_DRLR,365.4, hit,1,0
1109,8, T_Scon, T_Scon_DGRG,284.9, hit,2,0
1110,8, T_Sinc, T_Sinc_DRLR,448.3, hit,1,0
1111,8, T_Sinc, T_Sinc_UGRG,655.7, hit,2,0
1112,8, T_Sinc, T_Sinc_UGRG,83.2, hit,2,0
1113,8, T_Scon, T_Scon_URLR,254.6, hit,1,0
1114,8, T_Sinc, T_Sinc_UGRG,330.1, hit,2,0
1115,8, T_Sinc, T_Sinc_DRLR,393.5, hit,1,0
1116,8, T_Sinc, T_Sinc_UGRG,420.9, hit,2,0
1117,8, T_Sinc, T_Sinc_DRLR,424.1, hit,1,0
1118,8, T_Scon, T_Scon_DGRG,279.5, hit,2,0
1119,8, T_Sinc, T_Sinc_UGRG,298.9, hit,2,0
1120,8, T_Sinc, T_Sinc_UGRG,374.4, hit,2,0
1121,8, T_Sinc, T_Sinc_UGRG,261.9, hit,2,0
1122,8, T_Scon, T_Scon_URLR,409.2, hit,1,0
1123,8, T_Sinc, T_Sinc_DRLR,292.7, hit,1,0
1124,8, T_Scon, T_Scon_DGRG,648.2, hit,2,0
1125,8, T_Sinc, T_Sinc_UGRG,471.6, hit,2,0
1126,8, T_Sinc, T_Sinc_UGRG,435, hit,2,0
1127,8, T_Scon, T_Scon_DGRG,358.5, hit,2,0
1128,8, T_Sinc, T_Sinc_UGRG,553.9, hit,2,0
1129,8, T_Sinc, T_Sinc_UGRG,561.3, hit,2,0
1130,8, T_Scon, T_Scon_DGRG,524.8, hit,2,0
1131,8, T_Sinc, T_Sinc_UGRG,576.2, hit,2,0
1132,8, T_Sinc, T_Sinc_UGRG,355.6, hit,2,0
1133,8, T_Sinc, T_Sinc_DRLR,355.1, hit,1,0
1134,8, T_Sinc, T_Sinc_DRLR,434.6, hit,1,0
1135,8, T_Sinc, T_Sinc_UGRG,369.9, hit,2,0
1136,8, T_Sinc, T_Sinc_DRLR,592.9, hit,1,0
1137,8, T_Sinc, T_Sinc_DRLR,0.1, miss,3291115,1
1138,8, T_Sinc, T_Sinc_DRLR,475.7, hit,1,0
1139,8, T_Scon, T_Scon_URLR,355.2, hit,1,0
1140,8, T_Sinc, T_Sinc_DRLR,382.6, hit,1,0
1141,8, T_Sinc, T_Sinc_UGRG,386, hit,2,0
1142,8, T_Sinc, T_Sinc_UGRG,413.5, hit,2,0
1143,8, T_Sinc, T_Sinc_UGRG,313, hit,2,0
1144,8, T_Sinc, T_Sinc_DRLR,336.3, hit,1,0
1145,8, T_Sinc, T_Sinc_UGRG,563.8, hit,2,0
1146,8, T_Scon, T_Scon_DGRG,395.3, hit,2,0
1147,8, T_Scon, T_Scon_URLR,394.6, hit,1,0
1148,8, T_Sinc, T_Sinc_DRLR,482.1, hit,1,0
1149,8, T_Sinc, T_Sinc_DRLR,413.6, hit,1,0
1150,8, T_Sinc, T_Sinc_DRLR,592.9, hit,1,0
1151,8, T_Scon, T_Scon_DGRG,324.4, hit,2,0
1152,9, T_Sinc, T_Sinc_UGRG,370.4, hit,2,0
1153,9, T_Sinc, T_Sinc_UGRG,261.8, hit,2,0
1154,9, T_Sinc, T_Sinc_DRLR,321.3, hit,1,0
1155,9, T_Scon, T_Scon_DGRG,320.7, incorrect,1,1
1156,9, T_Sinc, T_Sinc_UGRG,388.1, hit,2,0
1157,9, T_Sinc, T_Sinc_UGRG,367.6, hit,2,0
1158,9, T_Sinc, T_Sinc_DRLR,522.9, hit,1,0
1159,9, T_Sinc, T_Sinc_DRLR,554.4, hit,1,0
1160,9, T_Sinc, T_Sinc_DRLR,437.9, hit,1,0
1161,9, T_Sinc, T_Sinc_DRLR,273.3, hit,1,0
1162,9, T_Sinc, T_Sinc_DRLR,308.8, hit,1,0
1163,9, T_Sinc, T_Sinc_UGRG,552.2, hit,2,0
1164,9, T_Sinc, T_Sinc_UGRG,355.6, hit,2,0
1165,9, T_Sinc, T_Sinc_DRLR,419, hit,1,0
1166,9, T_Scon, T_Scon_DGRG,310.5, incorrect,1,1
1167,9, T_Sinc, T_Sinc_UGRG,365.9, hit,2,0
1168,9, T_Sinc, T_Sinc_DRLR,661.3, hit,1,0
1169,9, T_Sinc, T_Sinc_DRLR,424.8, hit,1,0
1170,9, T_Sinc, T_Sinc_UGRG,372.2, hit,2,0
1171,9, T_Scon, T_Scon_URLR,391.7, hit,1,0
1172,9, T_Sinc, T_Sinc_UGRG,419, hit,2,0
1173,9, T_Scon, T_Scon_URLR,406.5, hit,1,0
1174,9, T_Sinc, T_Sinc_UGRG,490, hit,2,0
1175,9, T_Sinc, T_Sinc_UGRG,0.1, miss,533965,1
1176,9, T_Sinc, T_Sinc_DRLR,636.8, hit,1,0
1177,9, T_Sinc, T_Sinc_DRLR,328.3, hit,1,0
1178,9, T_Sinc, T_Sinc_UGRG,335.8, incorrect,1,1
1179,9, T_Sinc, T_Sinc_UGRG,583.1, hit,2,0
1180,9, T_Scon, T_Scon_URLR,498.6, hit,1,0
1181,9, T_Scon, T_Scon_URLR,558.1, hit,1,0
1182,9, T_Sinc, T_Sinc_DRLR,517.4, hit,1,0
1183,9, T_Scon, T_Scon_DGRG,536.9, hit,2,0
1184,9, T_Sinc, T_Sinc_DRLR,400.4, incorrect,2,1
1185,9, T_Sinc, T_Sinc_UGRG,459.8, hit,2,0
1186,9, T_Sinc, T_Sinc_DRLR,455.2, hit,1,0
1187,9, T_Sinc, T_Sinc_UGRG,350.7, hit,2,0
1188,9, T_Sinc, T_Sinc_UGRG,381.9, incorrect,1,1
1189,9, T_Scon, T_Scon_DGRG,505.2, hit,2,0
1190,9, T_Sinc, T_Sinc_UGRG,340.7, hit,2,0
1191,9, T_Sinc, T_Sinc_DRLR,424.1, hit,1,0
1192,9, T_Sinc, T_Sinc_DRLR,327.5, hit,1,0
1193,9, T_Scon, T_Scon_URLR,307, hit,1,0
1194,9, T_Scon, T_Scon_URLR,70.5, incorrect,2,1
1195,9, T_Scon, T_Scon_URLR,601.9, hit,1,0
1196,9, T_Sinc, T_Sinc_UGRG,381.3, hit,2,0
1197,9, T_Sinc, T_Sinc_DRLR,636.8, hit,1,0
1198,9, T_Sinc, T_Sinc_UGRG,472.2, hit,2,0
1199,9, T_Scon, T_Scon_URLR,763.6, hit,1,0
1200,9, T_Sinc, T_Sinc_DRLR,451.1, hit,1,0
1201,9, T_Sinc, T_Sinc_UGRG,310.5, hit,2,0
1202,9, T_Sinc, T_Sinc_DRLR,537.9, hit,1,0
1203,9, T_Sinc, T_Sinc_DRLR,585.4, hit,1,0
1204,9, T_Sinc, T_Sinc_UGRG,676.8, incorrect,1,1
1205,9, T_Sinc, T_Sinc_UGRG,392.2, hit,2,0
1206,9, T_Sinc, T_Sinc_UGRG,531.7, hit,2,0
1207,9, T_Sinc, T_Sinc_DRLR,1167.1, hit,1,2
1208,9, T_Sinc, T_Sinc_UGRG,446.6, hit,2,0
1209,9, T_Scon, T_Scon_URLR,386, hit,1,0
1210,9, T_Sinc, T_Sinc_DRLR,313.4, hit,1,0
1211,9, T_Sinc, T_Sinc_DRLR,360.9, hit,1,0
1212,9, T_Sinc, T_Sinc_DRLR,420.3, hit,1,0
1213,9, T_Sinc, T_Sinc_DRLR,383.7, hit,1,0
1214,9, T_Sinc, T_Sinc_UGRG,403.2, hit,2,0
1215,9, T_Sinc, T_Sinc_UGRG,458.6, hit,2,0
1216,9, T_Sinc, T_Sinc_DRLR,310.1, hit,1,0
1217,9, T_Sinc, T_Sinc_DRLR,297.5, hit,1,0
1218,9, T_Sinc, T_Sinc_DRLR,296.9, incorrect,2,1
1219,9, T_Sinc, T_Sinc_DRLR,388.4, hit,1,0
1220,9, T_Sinc, T_Sinc_DRLR,363.8, hit,1,0
1221,9, T_Sinc, T_Sinc_UGRG,427.3, incorrect,1,1
1222,9, T_Scon, T_Scon_DGRG,274.7, hit,2,0
1223,9, T_Sinc, T_Sinc_DRLR,406.1, hit,1,0
1224,9, T_Sinc, T_Sinc_DRLR,373.3, hit,1,0
1225,9, T_Sinc, T_Sinc_UGRG,312.7, hit,2,0
1226,9, T_Scon, T_Scon_URLR,344.2, hit,1,0
1227,9, T_Sinc, T_Sinc_UGRG,327.6, incorrect,1,1
1228,9, T_Sinc, T_Sinc_DRLR,339.1, hit,1,0
1229,9, T_Sinc, T_Sinc_UGRG,310.4, hit,2,0
1230,9, T_Sinc, T_Sinc_UGRG,465.9, hit,2,0
1231,9, T_Sinc, T_Sinc_DRLR,313.4, hit,1,0
1232,9, T_Sinc, T_Sinc_DRLR,364.8, hit,1,0
1233,9, T_Sinc, T_Sinc_UGRG,284.2, hit,2,0
1234,9, T_Scon, T_Scon_DGRG,871.7, hit,2,2
1235,9, T_Scon, T_Scon_DGRG,567.1, hit,2,0
1236,9, T_Sinc, T_Sinc_UGRG,306.5, incorrect,1,1
1237,9, T_Sinc, T_Sinc_UGRG,454, hit,2,0
1238,9, T_Sinc, T_Sinc_DRLR,433.4, hit,1,0
1239,9, T_Scon, T_Scon_DGRG,336.8, hit,2,0
1240,9, T_Sinc, T_Sinc_UGRG,388.3, hit,2,0
1241,9, T_Sinc, T_Sinc_UGRG,367.8, hit,2,0
1242,9, T_Sinc, T_Sinc_UGRG,451.1, hit,2,0
1243,9, T_Scon, T_Scon_DGRG,530.6, hit,2,0
1244,9, T_Sinc, T_Sinc_UGRG,422.1, hit,2,0
1245,9, T_Sinc, T_Sinc_DRLR,549.4, hit,1,0
1246,9, T_Sinc, T_Sinc_DRLR,324.9, hit,1,0
1247,9, T_Scon, T_Scon_DGRG,1168.4, incorrect,1,1
1248,9, T_Sinc, T_Sinc_UGRG,555.7, hit,2,0
1249,9, T_Sinc, T_Sinc_DRLR,331.2, hit,1,0
1250,9, T_Sinc, T_Sinc_DRLR,418.7, incorrect,2,1
1251,9, T_Sinc, T_Sinc_DRLR,438.1, incorrect,2,1
1252,9, T_Sinc, T_Sinc_DRLR,321.5, incorrect,2,1
1253,9, T_Scon, T_Scon_DGRG,516.9, hit,2,0
1254,9, T_Sinc, T_Sinc_DRLR,664.4, hit,1,0
1255,9, T_Sinc, T_Sinc_DRLR,323.8, hit,1,0
1256,9, T_Scon, T_Scon_DGRG,435.3, hit,2,0
1257,9, T_Scon, T_Scon_DGRG,298.7, hit,2,0
1258,9, T_Scon, T_Scon_DGRG,310.2, hit,2,0
1259,9, T_Sinc, T_Sinc_UGRG,421.6, hit,2,0
1260,9, T_Sinc, T_Sinc_DRLR,436.8, hit,1,0
1261,9, T_Sinc, T_Sinc_DRLR,268.2, hit,1,0
1262,9, T_Sinc, T_Sinc_UGRG,359.6, hit,2,0
1263,9, T_Sinc, T_Sinc_DRLR,323.1, hit,1,0
1264,9, T_Scon, T_Scon_URLR,302.5, hit,1,0
1265,9, T_Scon, T_Scon_DGRG,561.9, hit,2,0
1266,9, T_Sinc, T_Sinc_UGRG,397.4, hit,2,0
1267,9, T_Sinc, T_Sinc_DRLR,364.9, hit,1,0
1268,9, T_Sinc, T_Sinc_DRLR,556.2, hit,1,0
1269,9, T_Scon, T_Scon_URLR,359.7, hit,1,0
1270,9, T_Scon, T_Scon_URLR,351.1, hit,1,0
1271,9, T_Sinc, T_Sinc_DRLR,346.5, hit,1,0
1272,9, T_Scon, T_Scon_URLR,374, hit,1,0
1273,9, T_Sinc, T_Sinc_UGRG,337.5, hit,2,0
1274,9, T_Scon, T_Scon_URLR,488.9, hit,1,0
1275,9, T_Sinc, T_Sinc_DRLR,720.3, hit,1,0
1276,9, T_Sinc, T_Sinc_UGRG,607.8, hit,2,0
1277,9, T_Scon, T_Scon_URLR,451.2, hit,1,0
1278,9, T_Sinc, T_Sinc_UGRG,390.6, hit,2,0
1279,9, T_Scon, T_Scon_DGRG,326.1, hit,2,0
1280,9, T_Sinc, T_Sinc_UGRG,617.5, hit,2,0
1281,9, T_Sinc, T_Sinc_UGRG,429, hit,2,0
1282,9, T_Sinc, T_Sinc_UGRG,320.4, hit,2,0
1283,9, T_Sinc, T_Sinc_DRLR,571.8, hit,1,0
1284,9, T_Sinc, T_Sinc_DRLR,743.2, incorrect,2,1
1285,9, T_Sinc, T_Sinc_UGRG,550.7, hit,2,0
1286,9, T_Scon, T_Scon_DGRG,370.1, hit,2,0
1287,9, T_Sinc, T_Sinc_UGRG,421.6, hit,2,0
1288,9, T_Sinc, T_Sinc_DRLR,401, hit,1,0
1289,9, T_Sinc, T_Sinc_UGRG,604.4, hit,2,0
1290,9, T_Sinc, T_Sinc_UGRG,367.9, hit,2,0
1291,9, T_Sinc, T_Sinc_UGRG,351.3, hit,2,0
1292,9, T_Sinc, T_Sinc_UGRG,618.7, incorrect,1,1
1293,9, T_Scon, T_Scon_URLR,514.2, hit,1,0
1294,9, T_Scon, T_Scon_URLR,621.7, hit,1,0
1295,9, T_Scon, T_Scon_DGRG,361, incorrect,1,1
