trial_index, block, condition, full_condition_code, RT, response_type, response_key, error_outlier
1,1, T_Scon, T_Scon_UGLG,376.1, hit,1,0
2,1, T_Scon, T_Scon_UGLG,383.4, hit,1,0
3,1, T_Scon, T_Scon_DRRR,386.9, hit,2,0
4,1, T_Sinc, T_Sinc_URRR,414.3, hit,2,0
5,1, T_Scon, T_Scon_DRRR,397.7, hit,2,0
6,1, T_Sinc, T_Sinc_URRR,393.2, hit,2,0
7,1, T_Scon, T_Scon_UGLG,420.7, hit,1,0
8,1, T_Scon, T_Scon_DRRR,348.1, hit,2,0
9,1, T_Sinc, T_Sinc_DGLG,399.5, hit,1,0
10,1, T_Sinc, T_Sinc_URRR,383, hit,2,0
11,1, T_Scon, T_Scon_UGLG,278.3, hit,1,0
12,1, T_Sinc, T_Sinc_DGLG,285.8, incorrect,2,1
13,1, T_Sinc, T_Sinc_URRR,293.2, incorrect,1,1
14,1, T_Scon, T_Scon_DRRR,352.7, hit,2,0
15,1, T_Scon, T_Scon_UGLG,372.1, hit,1,0
16,1, T_Scon, T_Scon_UGLG,439.5, hit,1,0
17,1, T_Scon, T_Scon_DRRR,431.1, hit,2,0
18,1, T_Scon, T_Scon_UGLG,254.5, hit,1,0
19,1, T_Scon, T_Scon_DRRR,281.9, hit,2,0
20,1, T_Scon, T_Scon_UGLG,465.2, hit,1,0
21,1, T_Scon, T_Scon_DRRR,420.7, hit,2,0
22,1, T_Scon, T_Scon_UGLG,332.1, hit,1,0
23,1, T_Scon, T_Scon_UGLG,319.6, hit,1,0
24,1, T_Scon, T_Scon_DRRR,327, hit,2,0
25,1, T_Scon, T_Scon_DRRR,386.5, hit,2,0
26,1, T_Scon, T_Scon_UGLG,369.9, hit,1,0
27,1, T_Scon, T_Scon_DRRR,365.4, hit,2,0
28,1, T_Sinc, T_Sinc_DGLG,388.9, incorrect,2,1
29,1, T_Scon, T_Scon_UGLG,320.3, hit,1,0
30,1, T_Scon, T_Scon_DRRR,355.7, hit,2,0
31,1, T_Scon, T_Scon_DRRR,335.2, hit,2,0
32,1, T_Scon, T_Scon_DRRR,382.6, hit,2,0
33,1, T_Scon, T_Scon_DRRR,450.1, hit,2,0
34,1, T_Scon, T_Scon_UGLG,489.5, hit,1,0
35,1, T_Sinc, T_Sinc_DGLG,484.9, hit,1,0
36,1, T_Scon, T_Scon_UGLG,272.3, hit,1,0
37,1, T_Sinc, T_Sinc_DGLG,435.6, hit,1,0
38,1, T_Sinc, T_Sinc_URRR,375, hit,2,0
39,1, T_Scon, T_Scon_DRRR,338.4, hit,2,0
40,1, T_Scon, T_Scon_UGLG,357.9, hit,1,0
41,1, T_Scon, T_Scon_DRRR,333.2, hit,2,0
42,1, T_Scon, T_Scon_DRRR,332.7, incorrect,1,1
43,1, T_Scon, T_Scon_UGLG,320.1, hit,1,0
44,1, T_Scon, T_Scon_DRRR,499.6, hit,2,0
45,1, T_Scon, T_Scon_DRRR,367, hit,2,0
46,1, T_Sinc, T_Sinc_URRR,514.5, hit,2,0
47,1, T_Scon, T_Scon_DRRR,481.9, hit,2,0
48,1, T_Scon, T_Scon_UGLG,357.4, hit,1,0
49,1, T_Scon, T_Scon_UGLG,328.7, hit,1,0
50,1, T_Scon, T_Scon_UGLG,324.2, hit,1,0
51,1, T_Scon, T_Scon_DRRR,323.6, hit,2,0
52,1, T_Sinc, T_Sinc_URRR,443.1, hit,2,0
53,1, T_Scon, T_Scon_UGLG,406.5, hit,1,0
54,1, T_Scon, T_Scon_UGLG,409.9, hit,1,0
55,1, T_Scon, T_Scon_UGLG,337.4, hit,1,0
56,1, T_Scon, T_Scon_DRRR,340.8, hit,2,0
57,1, T_Scon, T_Scon_DRRR,260.2, hit,2,0
58,1, T_Sinc, T_Sinc_DGLG,583.6, hit,1,0
59,1, T_Scon, T_Scon_DRRR,363.1, hit,2,0
60,1, T_Scon, T_Scon_UGLG,390.5, hit,1,0
61,1, T_Scon, T_Scon_DRRR,338, hit,2,0
62,1, T_Scon, T_Scon_UGLG,369.4, hit,1,0
63,1, T_Sinc, T_Sinc_DGLG,408.9, hit,1,0
64,1, T_Scon, T_Scon_DRRR,344.2, hit,2,0
65,1, T_Sinc, T_Sinc_DGLG,459.7, hit,1,0
66,1, T_Scon, T_Scon_DRRR,511.1, hit,2,0
67,1, T_Scon, T_Scon_UGLG,530.5, hit,1,0
68,1, T_Scon, T_Scon_UGLG,438, hit,1,0
69,1, T_Scon, T_Scon_UGLG,337.5, hit,1,0
70,1, T_Scon, T_Scon_DRRR,332.9, hit,2,0
71,1, T_Sinc, T_Sinc_URRR,304.4, incorrect,1,1
72,1, T_Scon, T_Scon_DRRR,383.8, hit,2,0
73,1, T_Scon, T_Scon_DRRR,359, hit,2,0
74,1, T_Scon, T_Scon_DRRR,314.4, hit,2,0
75,1, T_Scon, T_Scon_UGLG,381.8, hit,1,0
76,1, T_Scon, T_Scon_DRRR,321.3, incorrect,1,1
77,1, T_Scon, T_Scon_UGLG,304.7, hit,1,0
78,1, T_Scon, T_Scon_UGLG,332.2, hit,1,0
79,1, T_Scon, T_Scon_UGLG,343.6, hit,1,0
80,1, T_Sinc, T_Sinc_DGLG,619, hit,1,0
81,1, T_Scon, T_Scon_UGLG,414.5, hit,1,0
82,1, T_Sinc, T_Sinc_DGLG,473.9, hit,1,0
83,1, T_Scon, T_Scon_UGLG,393.4, hit,1,0
84,1, T_Scon, T_Scon_DRRR,292.8, hit,2,0
85,1, T_Scon, T_Scon_DRRR,408.2, hit,2,0
86,1, T_Scon, T_Scon_DRRR,391.7, hit,2,0
87,1, T_Sinc, T_Sinc_DGLG,511.2, hit,1,0
88,1, T_Scon, T_Scon_UGLG,814.6, hit,1,2
89,1, T_Scon, T_Scon_DRRR,362, hit,2,0
90,1, T_Sinc, T_Sinc_DGLG,593.4, hit,1,0
91,1, T_Scon, T_Scon_DRRR,512.9, hit,2,0
92,1, T_Scon, T_Scon_UGLG,532.3, hit,1,0
93,1, T_Sinc, T_Sinc_DGLG,527.7, hit,1,0
94,1, T_Sinc, T_Sinc_URRR,527.2, hit,2,0
95,1, T_Scon, T_Scon_DRRR,458.6, hit,2,0
96,1, T_Scon, T_Scon_DRRR,518.1, hit,2,0
97,1, T_Scon, T_Scon_UGLG,481.5, hit,1,0
98,1, T_Scon, T_Scon_UGLG,517, hit,1,0
99,1, T_Sinc, T_Sinc_DGLG,528.3, hit,1,0
100,1, T_Sinc, T_Sinc_URRR,539.8, hit,2,0
101,1, T_Sinc, T_Sinc_URRR,491.2, hit,2,0
102,1, T_Scon, T_Scon_DRRR,574.7, hit,2,0
103,1, T_Scon, T_Scon_DRRR,490.1, hit,2,0
104,1, T_Sinc, T_Sinc_URRR,573.6, hit,2,0
105,1, T_Sinc, T_Sinc_URRR,357, hit,2,0
106,1, T_Scon, T_Scon_UGLG,440.5, hit,1,0
107,1, T_Sinc, T_Sinc_URRR,435.9, hit,2,0
108,1, T_Sinc, T_Sinc_URRR,391.4, hit,2,0
109,1, T_Sinc, T_Sinc_DGLG,606.5, hit,1,0
110,1, T_Scon, T_Scon_UGLG,393.9, hit,1,0
111,1, T_Sinc, T_Sinc_URRR,517.4, hit,2,0
112,1, T_Sinc, T_Sinc_DGLG,520.8, hit,1,0
113,1, T_Sinc, T_Sinc_URRR,464.3, hit,2,0
114,1, T_Scon, T_Scon_UGLG,339.7, hit,1,0
115,1, T_Scon, T_Scon_DRRR,355.1, hit,2,0
116,1, T_Scon, T_Scon_DRRR,414.5, hit,2,0
117,1, T_Scon, T_Scon_UGLG,378, hit,1,0
118,1, T_Scon, T_Scon_UGLG,325.4, hit,1,0
119,1, T_Scon, T_Scon_DRRR,356.9, hit,2,0
120,1, T_Scon, T_Scon_DRRR,624.3, hit,2,0
121,1, T_Scon, T_Scon_DRRR,363.8, hit,2,0
122,1, T_Scon, T_Scon_DRRR,367.2, hit,2,0
123,1, T_Scon, T_Scon_UGLG,386.7, hit,1,0
124,1, T_Scon, T_Scon_UGLG,478.1, hit,1,0
125,1, T_Scon, T_Scon_UGLG,385.5, hit,1,0
126,1, T_Scon, T_Scon_UGLG,385, hit,1,0
127,1, T_Scon, T_Scon_UGLG,328.3, hit,1,0
128,1, T_Sinc, T_Sinc_DGLG,567.8, hit,1,0
129,1, T_Scon, T_Scon_DRRR,511.2, hit,2,0
130,1, T_Scon, T_Scon_UGLG,354.7, hit,1,0
131,1, T_Scon, T_Scon_UGLG,414.1, hit,1,0
132,1, T_Sinc, T_Sinc_DGLG,457.6, hit,1,0
133,1, T_Scon, T_Scon_UGLG,381, hit,1,0
134,1, T_Scon, T_Scon_DRRR,496.5, hit,2,0
135,1, T_Sinc, T_Sinc_URRR,627.9, hit,2,0
136,1, T_Scon, T_Scon_DRRR,855.4, hit,2,2
137,1, T_Scon, T_Scon_DRRR,394.7, hit,2,0
138,1, T_Scon, T_Scon_UGLG,494.1, hit,1,0
139,1, T_Scon, T_Scon_DRRR,297.6, hit,2,0
140,1, T_Scon, T_Scon_UGLG,481.1, hit,1,0
141,1, T_Scon, T_Scon_UGLG,408.5, hit,1,0
142,1, T_Scon, T_Scon_DRRR,508, hit,2,0
143,1, T_Scon, T_Scon_DRRR,407.4, hit,2,0
144,1, T_Scon, T_Scon_UGLG,494.8, hit,1,0
145,2, T_Scon, T_Scon_DRRR,368.3, hit,2,0
146,2, T_Scon, T_Scon_DRRR,367.7, hit,2,0
147,2, T_Sinc, T_Sinc_DGLG,259.2, incorrect,2,1
148,2, T_Scon, T_Scon_DRRR,402.6, hit,2,0
149,2, T_Scon, T_Scon_DRRR,410.1, hit,2,0
150,2, T_Sinc, T_Sinc_URRR,413.5, hit,2,0
151,2, T_Scon, T_Scon_UGLG,373, hit,1,0
152,2, T_Scon, T_Scon_UGLG,316.4, hit,1,0
153,2, T_Scon, T_Scon_UGLG,339.9, hit,1,0
154,2, T_Scon, T_Scon_DRRR,339.3, hit,2,0
155,2, T_Scon, T_Scon_DRRR,302.7, hit,2,0
156,2, T_Scon, T_Scon_UGLG,422.2, hit,1,0
157,2, T_Scon, T_Scon_UGLG,297.6, hit,1,0
158,2, T_Sinc, T_Sinc_DGLG,381.1, hit,1,0
159,2, T_Scon, T_Scon_DRRR,428.4, hit,2,0
160,2, T_Scon, T_Scon_DRRR,335.9, hit,2,0
161,2, T_Sinc, T_Sinc_URRR,387.3, hit,2,0
162,2, T_Scon, T_Scon_UGLG,414.8, hit,1,0
163,2, T_Scon, T_Scon_DRRR,594.2, hit,2,0
164,2, T_Scon, T_Scon_DRRR,389.7, hit,2,0
165,2, T_Sinc, T_Sinc_URRR,361.1, incorrect,1,1
166,2, T_Scon, T_Scon_UGLG,316.6, hit,1,0
167,2, T_Scon, T_Scon_DRRR,368, hit,2,0
168,2, T_Scon, T_Scon_DRRR,323.4, hit,2,0
169,2, T_Scon, T_Scon_DRRR,338.9, hit,2,0
170,2, T_Scon, T_Scon_UGLG,318.3, hit,1,0
171,2, T_Scon, T_Scon_UGLG,305.8, hit,1,0
172,2, T_Scon, T_Scon_UGLG,285.2, hit,1,0
173,2, T_Scon, T_Scon_UGLG,248.7, hit,1,0
174,2, T_Scon, T_Scon_DRRR,324, hit,2,0
175,2, T_Scon, T_Scon_UGLG,559.5, hit,1,0
176,2, T_Sinc, T_Sinc_URRR,398.9, hit,2,0
177,2, T_Scon, T_Scon_DRRR,410.4, hit,2,0
178,2, T_Scon, T_Scon_DRRR,293.8, hit,2,0
179,2, T_Sinc, T_Sinc_DGLG,441.2, hit,1,0
180,2, T_Scon, T_Scon_DRRR,376.7, hit,2,0
181,2, T_Scon, T_Scon_UGLG,464, hit,1,0
182,2, T_Sinc, T_Sinc_URRR,347.3, hit,2,0
183,2, T_Scon, T_Scon_UGLG,366.7, hit,1,0
184,2, T_Scon, T_Scon_UGLG,354.2, hit,1,0
185,2, T_Sinc, T_Sinc_DGLG,381.6, incorrect,2,1
186,2, T_Scon, T_Scon_DRRR,353.1, hit,2,0
187,2, T_Scon, T_Scon_UGLG,308.5, hit,1,0
188,2, T_Scon, T_Scon_UGLG,328, hit,1,0
189,2, T_Scon, T_Scon_UGLG,387.4, hit,1,0
190,2, T_Sinc, T_Sinc_URRR,718.7, hit,2,0
191,2, T_Scon, T_Scon_DRRR,418.2, hit,2,0
192,2, T_Scon, T_Scon_UGLG,389.7, hit,1,0
193,2, T_Scon, T_Scon_DRRR,449.1, hit,2,0
194,2, T_Sinc, T_Sinc_DGLG,428.5, hit,1,0
195,2, T_Scon, T_Scon_DRRR,428, hit,2,0
196,2, T_Sinc, T_Sinc_DGLG,495.3, hit,1,0
197,2, T_Scon, T_Scon_UGLG,402.8, hit,1,0
198,2, T_Scon, T_Scon_DRRR,514.2, hit,2,0
199,2, T_Scon, T_Scon_UGLG,405.7, hit,1,0
200,2, T_Scon, T_Scon_UGLG,361.1, hit,1,0
201,2, T_Scon, T_Scon_UGLG,336.6, hit,1,0
202,2, T_Scon, T_Scon_UGLG,304, hit,1,0
203,2, T_Sinc, T_Sinc_URRR,315.5, incorrect,1,1
204,2, T_Sinc, T_Sinc_URRR,346.9, hit,2,0
205,2, T_Scon, T_Scon_UGLG,366.4, hit,1,0
206,2, T_Scon, T_Scon_DRRR,465.8, hit,2,0
207,2, T_Scon, T_Scon_DRRR,381.2, hit,2,0
208,2, T_Scon, T_Scon_UGLG,356.6, hit,1,0
209,2, T_Scon, T_Scon_DRRR,380.1, hit,2,0
210,2, T_Scon, T_Scon_DRRR,343.5, hit,2,0
211,2, T_Sinc, T_Sinc_URRR,411, hit,2,0
212,2, T_Scon, T_Scon_DRRR,302.4, hit,2,0
213,2, T_Sinc, T_Sinc_DGLG,377.9, hit,1,0
214,2, T_Scon, T_Scon_DRRR,365.3, hit,2,0
215,2, T_Scon, T_Scon_DRRR,300.7, hit,2,0
216,2, T_Sinc, T_Sinc_URRR,452.1, hit,2,0
217,2, T_Scon, T_Scon_UGLG,327.4, hit,1,0
218,2, T_Sinc, T_Sinc_DGLG,378.8, hit,1,0
219,2, T_Sinc, T_Sinc_DGLG,334.2, hit,1,0
220,2, T_Scon, T_Scon_UGLG,333.7, hit,1,0
221,2, T_Scon, T_Scon_DRRR,289.1, hit,2,0
222,2, T_Scon, T_Scon_UGLG,372.5, hit,1,0
223,2, T_Scon, T_Scon_DRRR,311.9, hit,2,0
224,2, T_Sinc, T_Sinc_URRR,419.4, hit,2,0
225,2, T_Sinc, T_Sinc_URRR,262.8, hit,2,0
226,2, T_Sinc, T_Sinc_DGLG,410.3, hit,1,0
227,2, T_Scon, T_Scon_UGLG,501.7, hit,1,0
228,2, T_Scon, T_Scon_UGLG,313.1, hit,1,0
229,2, T_Scon, T_Scon_DRRR,328.6, hit,2,0
230,2, T_Sinc, T_Sinc_DGLG,467.9, hit,1,0
231,2, T_Scon, T_Scon_UGLG,415.4, hit,1,0
232,2, T_Scon, T_Scon_DRRR,370.8, hit,2,0
233,2, T_Scon, T_Scon_UGLG,342.3, hit,1,0
234,2, T_Scon, T_Scon_UGLG,413.8, hit,1,0
235,2, T_Scon, T_Scon_UGLG,329.2, hit,1,0
236,2, T_Scon, T_Scon_UGLG,308.6, hit,1,0
237,2, T_Scon, T_Scon_UGLG,228.1, hit,1,0
238,2, T_Scon, T_Scon_UGLG,331.4, hit,1,0
239,2, T_Scon, T_Scon_UGLG,286.9, hit,1,0
240,2, T_Scon, T_Scon_UGLG,306.3, hit,1,0
241,2, T_Scon, T_Scon_DRRR,377.8, hit,2,0
242,2, T_Scon, T_Scon_DRRR,321.2, hit,2,0
243,2, T_Scon, T_Scon_DRRR,380.6, hit,2,0
244,2, T_Scon, T_Scon_DRRR,476.1, hit,2,0
245,2, T_Sinc, T_Sinc_URRR,399.6, hit,2,0
246,2, T_Sinc, T_Sinc_DGLG,411, hit,1,0
247,2, T_Scon, T_Scon_DRRR,338.5, hit,2,0
248,2, T_Sinc, T_Sinc_DGLG,357.8, incorrect,2,1
249,2, T_Scon, T_Scon_UGLG,353.2, hit,1,0
250,2, T_Scon, T_Scon_DRRR,348.7, hit,2,0
251,2, T_Sinc, T_Sinc_DGLG,356.2, hit,1,0
252,2, T_Sinc, T_Sinc_DGLG,275.6, hit,1,0
253,2, T_Scon, T_Scon_UGLG,346.8, hit,1,0
254,2, T_Scon, T_Scon_DRRR,378.2, hit,2,0
255,2, T_Sinc, T_Sinc_URRR,429.6, hit,2,0
256,2, T_Scon, T_Scon_DRRR,409.1, hit,2,0
257,2, T_Scon, T_Scon_DRRR,416.5, hit,2,0
258,2, T_Scon, T_Scon_DRRR,372, hit,2,0
259,2, T_Scon, T_Scon_UGLG,383.4, hit,1,0
260,2, T_Scon, T_Scon_DRRR,354.9, hit,2,0
261,2, T_Scon, T_Scon_DRRR,466.3, hit,2,0
262,2, T_Scon, T_Scon_UGLG,533.7, hit,1,0
263,2, T_Scon, T_Scon_DRRR,361.2, hit,2,0
264,2, T_Scon, T_Scon_DRRR,288.5, hit,2,0
265,2, T_Scon, T_Scon_DRRR,344, hit,2,0
266,2, T_Scon, T_Scon_UGLG,479.4, hit,1,0
267,2, T_Scon, T_Scon_UGLG,382.9, hit,1,0
268,2, T_Scon, T_Scon_DRRR,326.3, hit,2,0
269,2, T_Scon, T_Scon_UGLG,345.8, hit,1,0
270,2, T_Sinc, T_Sinc_DGLG,357.2, incorrect,2,1
271,2, T_Scon, T_Scon_DRRR,456.7, hit,2,0
272,2, T_Scon, T_Scon_UGLG,348.1, hit,1,0
273,2, T_Scon, T_Scon_UGLG,359.5, hit,1,0
274,2, T_Sinc, T_Sinc_URRR,638.9, hit,2,0
275,2, T_Sinc, T_Sinc_DGLG,586.4, hit,1,0
276,2, T_Scon, T_Scon_DRRR,473.8, hit,2,0
277,2, T_Scon, T_Scon_UGLG,337.3, hit,1,0
278,2, T_Sinc, T_Sinc_URRR,452.7, hit,2,0
279,2, T_Sinc, T_Sinc_DGLG,312.2, hit,1,0
280,2, T_Scon, T_Scon_UGLG,371.6, hit,1,0
281,2, T_Sinc, T_Sinc_URRR,603, hit,2,0
282,2, T_Sinc, T_Sinc_URRR,358.5, hit,2,0
283,2, T_Scon, T_Scon_DRRR,369.9, hit,2,0
284,2, T_Scon, T_Scon_DRRR,585.4, hit,2,0
285,2, T_Scon, T_Scon_DRRR,324.8, hit,2,0
286,2, T_Scon, T_Scon_UGLG,408.2, hit,1,0
287,2, T_Scon, T_Scon_UGLG,487.6, hit,1,0
288,2, T_Scon, T_Scon_UGLG,343.1, hit,1,0
289,3, T_Scon, T_Scon_UGLG,347.1, hit,1,0
290,3, T_Scon, T_Scon_DRRR,334.5, hit,2,0
291,3, T_Scon, T_Scon_UGLG,510, hit,1,0
292,3, T_Scon, T_Scon_UGLG,305.4, hit,1,0
293,3, T_Sinc, T_Sinc_DGLG,508.9, hit,1,0
294,3, T_Scon, T_Scon_UGLG,356.2, hit,1,0
295,3, T_Scon, T_Scon_DRRR,331.7, hit,2,0
296,3, T_Sinc, T_Sinc_DGLG,367.1, hit,1,0
297,3, T_Scon, T_Scon_UGLG,346.5, hit,1,0
298,3, T_Scon, T_Scon_UGLG,310, hit,1,0
299,3, T_Scon, T_Scon_UGLG,289.4, hit,1,0
300,3, T_Sinc, T_Sinc_DGLG,428.9, hit,1,0
301,3, T_Sinc, T_Sinc_DGLG,400.3, hit,1,0
302,3, T_Scon, T_Scon_DRRR,491.8, hit,2,0
303,3, T_Scon, T_Scon_DRRR,275.2, hit,2,0
304,3, T_Sinc, T_Sinc_URRR,658.7, hit,2,0
305,3, T_Sinc, T_Sinc_URRR,326.1, incorrect,1,1
306,3, T_Sinc, T_Sinc_DGLG,269.5, hit,1,0
307,3, T_Sinc, T_Sinc_URRR,576.9, hit,2,0
308,3, T_Scon, T_Scon_DRRR,428.4, hit,2,0
309,3, T_Scon, T_Scon_DRRR,319.8, hit,2,0
310,3, T_Scon, T_Scon_DRRR,375.3, hit,2,0
311,3, T_Scon, T_Scon_UGLG,362.7, hit,1,0
312,3, T_Scon, T_Scon_DRRR,362.1, hit,2,0
313,3, T_Scon, T_Scon_DRRR,345.6, hit,2,0
314,3, T_Sinc, T_Sinc_URRR,417, hit,2,0
315,3, T_Sinc, T_Sinc_URRR,324.5, hit,2,0
316,3, T_Scon, T_Scon_UGLG,439.9, hit,1,0
317,3, T_Scon, T_Scon_DRRR,323.4, hit,2,0
318,3, T_Sinc, T_Sinc_URRR,446.7, hit,2,0
319,3, T_Scon, T_Scon_UGLG,374.2, hit,1,0
320,3, T_Scon, T_Scon_DRRR,357.6, hit,2,0
321,3, T_Scon, T_Scon_UGLG,445.1, hit,1,0
322,3, T_Scon, T_Scon_DRRR,300.5, hit,2,0
323,3, T_Scon, T_Scon_UGLG,436, hit,1,0
324,3, T_Scon, T_Scon_UGLG,443.4, hit,1,0
325,3, T_Scon, T_Scon_DRRR,442.6, hit,2,0
326,3, T_Scon, T_Scon_UGLG,386, hit,1,0
327,3, T_Scon, T_Scon_DRRR,437.4, hit,2,0
328,3, T_Sinc, T_Sinc_URRR,360.9, incorrect,1,1
329,3, T_Scon, T_Scon_DRRR,316.3, hit,2,0
330,3, T_Sinc, T_Sinc_DGLG,423.8, incorrect,2,1
331,3, T_Sinc, T_Sinc_URRR,471.1, hit,2,0
332,3, T_Scon, T_Scon_DRRR,498.6, hit,2,0
333,3, T_Scon, T_Scon_DRRR,358, hit,2,0
334,3, T_Scon, T_Scon_UGLG,341.5, hit,1,0
335,3, T_Sinc, T_Sinc_URRR,328.9, hit,2,0
336,3, T_Sinc, T_Sinc_URRR,356.4, hit,2,0
337,3, T_Scon, T_Scon_UGLG,291.8, incorrect,2,1
338,3, T_Scon, T_Scon_UGLG,343.3, hit,1,0
339,3, T_Sinc, T_Sinc_DGLG,510.6, hit,1,0
340,3, T_Scon, T_Scon_UGLG,330.1, hit,1,0
341,3, T_Sinc, T_Sinc_DGLG,337.5, incorrect,2,1
342,3, T_Sinc, T_Sinc_URRR,484.9, hit,2,0
343,3, T_Scon, T_Scon_UGLG,344.4, hit,1,0
344,3, T_Sinc, T_Sinc_DGLG,403.9, hit,1,0
345,3, T_Scon, T_Scon_UGLG,383.3, hit,1,0
346,3, T_Scon, T_Scon_UGLG,306.7, hit,1,0
347,3, T_Scon, T_Scon_UGLG,350.1, hit,1,0
348,3, T_Scon, T_Scon_UGLG,465.6, hit,1,0
349,3, T_Scon, T_Scon_DRRR,341, hit,2,0
350,3, T_Scon, T_Scon_DRRR,296.4, hit,2,0
351,3, T_Scon, T_Scon_UGLG,399.9, hit,1,0
352,3, T_Sinc, T_Sinc_URRR,355.3, hit,2,0
353,3, T_Scon, T_Scon_DRRR,350.8, hit,2,0
354,3, T_Scon, T_Scon_UGLG,374.2, hit,1,0
355,3, T_Scon, T_Scon_DRRR,325.7, hit,2,0
356,3, T_Scon, T_Scon_UGLG,417.1, hit,1,0
357,3, T_Scon, T_Scon_UGLG,364.6, hit,1,0
358,3, T_Scon, T_Scon_DRRR,332, hit,2,0
359,3, T_Scon, T_Scon_UGLG,487.5, hit,1,0
360,3, T_Scon, T_Scon_DRRR,286.8, hit,2,0
361,3, T_Scon, T_Scon_UGLG,382.1, hit,1,0
362,3, T_Scon, T_Scon_UGLG,289.5, hit,1,0
363,3, T_Scon, T_Scon_DRRR,388.9, hit,2,0
364,3, T_Scon, T_Scon_DRRR,284.4, hit,2,0
365,3, T_Scon, T_Scon_DRRR,383.8, hit,2,0
366,3, T_Scon, T_Scon_DRRR,339.1, hit,2,0
367,3, T_Scon, T_Scon_UGLG,426.6, hit,1,0
368,3, T_Scon, T_Scon_DRRR,466.1, hit,2,0
369,3, T_Scon, T_Scon_DRRR,405.5, hit,2,0
370,3, T_Scon, T_Scon_DRRR,449, hit,2,0
371,3, T_Scon, T_Scon_DRRR,392.4, hit,2,0
372,3, T_Scon, T_Scon_DRRR,319.9, hit,2,0
373,3, T_Scon, T_Scon_UGLG,403.3, hit,1,0
374,3, T_Scon, T_Scon_UGLG,390.7, hit,1,0
375,3, T_Sinc, T_Sinc_DGLG,334.2, incorrect,2,1
376,3, T_Scon, T_Scon_DRRR,429.6, hit,2,0
377,3, T_Scon, T_Scon_DRRR,437.1, hit,2,0
378,3, T_Scon, T_Scon_UGLG,336.4, hit,1,0
379,3, T_Sinc, T_Sinc_DGLG,347.9, hit,1,0
380,3, T_Scon, T_Scon_DRRR,339.3, hit,2,0
381,3, T_Scon, T_Scon_UGLG,406.8, hit,1,0
382,3, T_Scon, T_Scon_DRRR,446.2, hit,2,0
383,3, T_Scon, T_Scon_DRRR,385.7, hit,2,0
384,3, T_Scon, T_Scon_DRRR,437.1, hit,2,0
385,3, T_Scon, T_Scon_UGLG,440.6, hit,1,0
386,3, T_Scon, T_Scon_UGLG,348, hit,1,0
387,3, T_Scon, T_Scon_UGLG,383.5, hit,1,0
388,3, T_Scon, T_Scon_UGLG,266.9, hit,1,0
389,3, T_Scon, T_Scon_UGLG,278.3, hit,1,0
390,3, T_Scon, T_Scon_UGLG,281.7, hit,1,0
391,3, T_Scon, T_Scon_UGLG,349.2, hit,1,0
392,3, T_Scon, T_Scon_UGLG,344.6, hit,1,0
393,3, T_Scon, T_Scon_UGLG,264.1, hit,1,0
394,3, T_Sinc, T_Sinc_DGLG,763.5, hit,1,2
395,3, T_Scon, T_Scon_DRRR,518.9, hit,2,0
396,3, T_Scon, T_Scon_UGLG,334.3, hit,1,0
397,3, T_Sinc, T_Sinc_URRR,389.6, hit,2,0
398,3, T_Scon, T_Scon_UGLG,349, hit,1,0
399,3, T_Scon, T_Scon_UGLG,280.4, hit,1,0
400,3, T_Scon, T_Scon_DRRR,371.9, hit,2,0
401,3, T_Sinc, T_Sinc_URRR,347.3, hit,2,0
402,3, T_Scon, T_Scon_DRRR,390.8, hit,2,0
403,3, T_Scon, T_Scon_DRRR,338.1, hit,2,0
404,3, T_Scon, T_Scon_UGLG,297.5, hit,1,0
405,3, T_Scon, T_Scon_DRRR,357, hit,2,0
406,3, T_Sinc, T_Sinc_DGLG,288.4, incorrect,2,1
407,3, T_Scon, T_Scon_UGLG,387.9, hit,1,0
408,3, T_Sinc, T_Sinc_URRR,331.3, hit,2,0
409,3, T_Scon, T_Scon_DRRR,350.8, hit,2,0
410,3, T_Sinc, T_Sinc_DGLG,434.2, hit,1,0
411,3, T_Scon, T_Scon_UGLG,805.6, hit,1,2
412,3, T_Scon, T_Scon_DRRR,305, hit,2,0
413,3, T_Scon, T_Scon_DRRR,324.5, hit,2,0
414,3, T_Scon, T_Scon_DRRR,311.9, hit,2,0
415,3, T_Sinc, T_Sinc_DGLG,279.4, incorrect,2,1
416,3, T_Sinc, T_Sinc_URRR,546.8, hit,2,0
417,3, T_Scon, T_Scon_UGLG,474.2, hit,1,0
418,3, T_Sinc, T_Sinc_DGLG,389.7, hit,1,0
419,3, T_Sinc, T_Sinc_DGLG,345.2, hit,1,0
420,3, T_Scon, T_Scon_UGLG,388.6, hit,1,0
421,3, T_Scon, T_Scon_DRRR,464.1, hit,2,0
422,3, T_Scon, T_Scon_UGLG,467.5, hit,1,0
423,3, T_Sinc, T_Sinc_URRR,550.8, hit,2,0
424,3, T_Sinc, T_Sinc_DGLG,562.3, hit,1,0
425,3, T_Scon, T_Scon_DRRR,445.7, hit,2,0
426,3, T_Scon, T_Scon_DRRR,269.2, hit,2,0
427,3, T_Sinc, T_Sinc_URRR,260.6, incorrect,1,1
428,3, T_Scon, T_Scon_DRRR,320.1, hit,2,0
429,3, T_Scon, T_Scon_DRRR,331.5, hit,2,0
430,3, T_Scon, T_Scon_UGLG,307, hit,1,0
431,3, T_Scon, T_Scon_DRRR,414.4, hit,2,0
432,3, T_Scon, T_Scon_DRRR,481.8, hit,2,0
433,4, T_Sinc, T_Sinc_URRR,362.8, hit,2,0
434,4, T_Sinc, T_Sinc_URRR,370.2, hit,2,0
435,4, T_Scon, T_Scon_UGLG,417.7, hit,1,0
436,4, T_Sinc, T_Sinc_URRR,549.1, hit,2,0
437,4, T_Scon, T_Scon_DRRR,472.6, hit,2,0
438,4, T_Sinc, T_Sinc_URRR,408, hit,2,0
439,4, T_Sinc, T_Sinc_DGLG,327.4, hit,1,0
440,4, T_Scon, T_Scon_DRRR,450.8, hit,2,0
441,4, T_Sinc, T_Sinc_DGLG,358.2, hit,1,0
442,4, T_Sinc, T_Sinc_URRR,353.7, hit,2,0
443,4, T_Sinc, T_Sinc_DGLG,625.1, hit,1,0
444,4, T_Sinc, T_Sinc_URRR,392.6, incorrect,1,1
445,4, T_Scon, T_Scon_UGLG,444, hit,1,0
446,4, T_Sinc, T_Sinc_URRR,519.5, hit,2,0
447,4, T_Sinc, T_Sinc_DGLG,490.9, hit,1,0
448,4, T_Sinc, T_Sinc_URRR,366.4, hit,2,0
449,4, T_Sinc, T_Sinc_DGLG,493.9, hit,1,0
450,4, T_Sinc, T_Sinc_URRR,385.2, hit,2,0
451,4, T_Scon, T_Scon_DRRR,756.6, hit,2,2
452,4, T_Sinc, T_Sinc_URRR,492.1, hit,2,0
453,4, T_Sinc, T_Sinc_DGLG,515.5, hit,1,0
454,4, T_Sinc, T_Sinc_URRR,339, hit,2,0
455,4, T_Scon, T_Scon_DRRR,510.4, hit,2,0
456,4, T_Sinc, T_Sinc_DGLG,453.8, hit,1,0
457,4, T_Sinc, T_Sinc_URRR,533.3, hit,2,0
458,4, T_Scon, T_Scon_UGLG,408.7, hit,1,0
459,4, T_Sinc, T_Sinc_DGLG,320.2, incorrect,2,1
460,4, T_Sinc, T_Sinc_URRR,407.6, hit,2,0
461,4, T_Sinc, T_Sinc_DGLG,395, hit,1,0
462,4, T_Scon, T_Scon_UGLG,382.4, hit,1,0
463,4, T_Sinc, T_Sinc_DGLG,337.9, hit,1,0
464,4, T_Sinc, T_Sinc_DGLG,357.3, hit,1,0
465,4, T_Sinc, T_Sinc_DGLG,476.8, hit,1,0
466,4, T_Sinc, T_Sinc_URRR,360.2, hit,2,0
467,4, T_Sinc, T_Sinc_URRR,339.7, hit,2,0
468,4, T_Sinc, T_Sinc_URRR,391.1, hit,2,0
469,4, T_Sinc, T_Sinc_DGLG,366.3, hit,1,0
470,4, T_Sinc, T_Sinc_URRR,377.7, hit,2,0
471,4, T_Sinc, T_Sinc_DGLG,301.2, hit,1,0
472,4, T_Scon, T_Scon_DRRR,376.6, hit,2,0
473,4, T_Sinc, T_Sinc_DGLG,476, hit,1,0
474,4, T_Sinc, T_Sinc_URRR,323.4, hit,2,0
475,4, T_Sinc, T_Sinc_URRR,402.8, hit,2,0
476,4, T_Sinc, T_Sinc_DGLG,318.3, hit,1,0
477,4, T_Sinc, T_Sinc_URRR,341.7, hit,2,0
478,4, T_Sinc, T_Sinc_URRR,409.2, hit,2,0
479,4, T_Sinc, T_Sinc_DGLG,376.6, incorrect,2,1
480,4, T_Sinc, T_Sinc_DGLG,372.1, hit,1,0
481,4, T_Scon, T_Scon_UGLG,359.5, hit,1,0
482,4, T_Sinc, T_Sinc_DGLG,395, hit,1,0
483,4, T_Sinc, T_Sinc_DGLG,398.4, hit,1,0
484,4, T_Scon, T_Scon_DRRR,497.8, hit,2,0
485,4, T_Sinc, T_Sinc_DGLG,489.2, hit,1,0
486,4, T_Scon, T_Scon_UGLG,392.7, hit,1,0
487,4, T_Sinc, T_Sinc_URRR,680.1, hit,2,0
488,4, T_Sinc, T_Sinc_DGLG,299.5, incorrect,2,1
489,4, T_Sinc, T_Sinc_URRR,335, hit,2,0
490,4, T_Scon, T_Scon_UGLG,434.4, hit,1,0
491,4, T_Scon, T_Scon_UGLG,433.9, hit,1,0
492,4, T_Sinc, T_Sinc_URRR,373.4, hit,2,0
493,4, T_Sinc, T_Sinc_DGLG,440.8, hit,1,0
494,4, T_Sinc, T_Sinc_URRR,412.1, hit,2,0
495,4, T_Sinc, T_Sinc_DGLG,547.6, hit,1,0
496,4, T_Sinc, T_Sinc_URRR,375, hit,2,0
497,4, T_Sinc, T_Sinc_DGLG,306.5, hit,1,0
498,4, T_Scon, T_Scon_DRRR,469.9, hit,2,0
499,4, T_Sinc, T_Sinc_DGLG,377.4, hit,1,0
500,4, T_Scon, T_Scon_UGLG,548.8, hit,1,0
501,4, T_Scon, T_Scon_UGLG,432.3, hit,1,0
502,4, T_Sinc, T_Sinc_DGLG,471.7, hit,1,0
503,4, T_Sinc, T_Sinc_URRR,363.1, hit,2,0
504,4, T_Sinc, T_Sinc_URRR,270.5, incorrect,1,1
505,4, T_Sinc, T_Sinc_URRR,437.8, hit,2,0
506,4, T_Sinc, T_Sinc_URRR,345.2, hit,2,0
507,4, T_Sinc, T_Sinc_URRR,380.6, hit,2,0
508,4, T_Sinc, T_Sinc_DGLG,368.1, hit,1,0
509,4, T_Sinc, T_Sinc_URRR,379.5, hit,2,0
510,4, T_Sinc, T_Sinc_DGLG,502.9, hit,1,0
511,4, T_Sinc, T_Sinc_DGLG,418.3, hit,1,0
512,4, T_Sinc, T_Sinc_DGLG,353.8, hit,1,0
513,4, T_Sinc, T_Sinc_URRR,325.2, hit,2,0
514,4, T_Scon, T_Scon_UGLG,400.7, hit,1,0
515,4, T_Scon, T_Scon_DRRR,340.1, hit,2,0
516,4, T_Scon, T_Scon_DRRR,459.6, hit,2,0
517,4, T_Sinc, T_Sinc_URRR,455, hit,2,0
518,4, T_Sinc, T_Sinc_URRR,286.4, hit,2,0
519,4, T_Sinc, T_Sinc_DGLG,473.8, hit,1,0
520,4, T_Sinc, T_Sinc_DGLG,381.2, hit,1,0
521,4, T_Scon, T_Scon_UGLG,320.7, hit,1,0
522,4, T_Sinc, T_Sinc_DGLG,364.2, hit,1,0
523,4, T_Sinc, T_Sinc_DGLG,323.6, hit,1,0
524,4, T_Scon, T_Scon_DRRR,559, hit,2,0
525,4, T_Scon, T_Scon_UGLG,782.5, hit,1,2
526,4, T_Scon, T_Scon_DRRR,501.9, hit,2,0
527,4, T_Sinc, T_Sinc_URRR,457.4, hit,2,0
528,4, T_Sinc, T_Sinc_DGLG,612.8, hit,1,0
529,4, T_Scon, T_Scon_DRRR,480.2, hit,2,0
530,4, T_Scon, T_Scon_UGLG,411.6, hit,1,0
531,4, T_Sinc, T_Sinc_URRR,383.1, hit,2,0
532,4, T_Sinc, T_Sinc_URRR,386.5, hit,2,0
533,4, T_Sinc, T_Sinc_DGLG,314, hit,1,0
534,4, T_Sinc, T_Sinc_DGLG,361.4, hit,1,0
535,4, T_Sinc, T_Sinc_URRR,376.9, hit,2,0
536,4, T_Sinc, T_Sinc_DGLG,372.3, hit,1,0
537,4, T_Sinc, T_Sinc_DGLG,391.8, hit,1,0
538,4, T_Sinc, T_Sinc_DGLG,451.2, hit,1,0
539,4, T_Scon, T_Scon_DRRR,422.5, hit,2,0
540,4, T_Sinc, T_Sinc_URRR,422, hit,2,0
541,4, T_Sinc, T_Sinc_DGLG,401.3, hit,1,0
542,4, T_Sinc, T_Sinc_URRR,396.7, hit,2,0
543,4, T_Scon, T_Scon_UGLG,376, hit,1,0
544,4, T_Scon, T_Scon_DRRR,347.5, incorrect,1,1
545,4, T_Sinc, T_Sinc_DGLG,390.9, hit,1,0
546,4, T_Sinc, T_Sinc_URRR,306.4, hit,2,0
547,4, T_Sinc, T_Sinc_URRR,345.8, hit,2,0
548,4, T_Sinc, T_Sinc_URRR,469.2, hit,2,0
549,4, T_Sinc, T_Sinc_DGLG,380.7, hit,1,0
550,4, T_Scon, T_Scon_UGLG,320.2, hit,1,0
551,4, T_Sinc, T_Sinc_DGLG,407.6, hit,1,0
552,4, T_Sinc, T_Sinc_URRR,515, hit,2,0
553,4, T_Sinc, T_Sinc_DGLG,354.5, hit,1,0
554,4, T_Sinc, T_Sinc_URRR,369.9, hit,2,0
555,4, T_Sinc, T_Sinc_URRR,473.3, hit,2,0
556,4, T_Sinc, T_Sinc_DGLG,364.7, hit,1,0
557,4, T_Sinc, T_Sinc_URRR,424.2, hit,2,0
558,4, T_Scon, T_Scon_UGLG,467.6, hit,1,0
559,4, T_Sinc, T_Sinc_DGLG,375.1, hit,1,0
560,4, T_Sinc, T_Sinc_URRR,330.5, hit,2,0
561,4, T_Sinc, T_Sinc_URRR,590, hit,2,0
562,4, T_Sinc, T_Sinc_DGLG,633.4, hit,1,0
563,4, T_Sinc, T_Sinc_URRR,532.9, hit,2,0
564,4, T_Scon, T_Scon_DRRR,732.3, hit,2,0
565,4, T_Scon, T_Scon_DRRR,867.7, hit,2,2
566,4, T_Sinc, T_Sinc_DGLG,631.1, hit,1,0
567,4, T_Scon, T_Scon_UGLG,486.5, hit,1,0
568,4, T_Sinc, T_Sinc_URRR,706, hit,2,0
569,4, T_Sinc, T_Sinc_URRR,597.5, hit,2,0
570,4, T_Scon, T_Scon_DRRR,376.9, incorrect,1,1
571,4, T_Sinc, T_Sinc_DGLG,332.3, hit,1,0
572,4, T_Sinc, T_Sinc_URRR,563.8, hit,2,0
573,4, T_Sinc, T_Sinc_DGLG,367.2, hit,1,0
574,4, T_Sinc, T_Sinc_DGLG,830.7, hit,1,2
575,4, T_Scon, T_Scon_DRRR,366.1, hit,2,0
576,4, T_Sinc, T_Sinc_DGLG,361.6, hit,1,0
577,5, T_Sinc, T_Sinc_DGLG,385, hit,1,0
578,5, T_Sinc, T_Sinc_DGLG,428.4, hit,1,0
579,5, T_Sinc, T_Sinc_URRR,395.9, hit,2,0
580,5, T_Scon, T_Scon_UGLG,459.3, hit,1,0
581,5, T_Sinc, T_Sinc_DGLG,358.6, hit,1,0
582,5, T_Sinc, T_Sinc_URRR,366.1, hit,2,0
583,5, T_Sinc, T_Sinc_DGLG,377.5, hit,1,0
584,5, T_Sinc, T_Sinc_DGLG,325, hit,1,0
585,5, T_Scon, T_Scon_DRRR,488.5, hit,2,0
586,5, T_Sinc, T_Sinc_URRR,299.9, hit,2,0
587,5, T_Scon, T_Scon_DRRR,435.3, hit,2,0
588,5, T_Sinc, T_Sinc_DGLG,314.8, hit,1,0
589,5, T_Sinc, T_Sinc_URRR,318.2, hit,2,0
590,5, T_Sinc, T_Sinc_DGLG,281.7, incorrect,2,1
591,5, T_Sinc, T_Sinc_URRR,317.1, hit,2,0
592,5, T_Sinc, T_Sinc_URRR,392.6, hit,2,0
593,5, T_Sinc, T_Sinc_URRR,499.9, hit,2,0
594,5, T_Sinc, T_Sinc_DGLG,347.4, hit,1,0
595,5, T_Scon, T_Scon_UGLG,438.8, hit,1,0
596,5, T_Scon, T_Scon_UGLG,314.3, hit,1,0
597,5, T_Sinc, T_Sinc_URRR,461.7, hit,2,0
598,5, T_Sinc, T_Sinc_URRR,393.1, hit,2,0
599,5, T_Sinc, T_Sinc_URRR,300.6, hit,2,0
600,5, T_Sinc, T_Sinc_DGLG,316, hit,1,0
601,5, T_Sinc, T_Sinc_DGLG,375.5, hit,1,0
602,5, T_Sinc, T_Sinc_DGLG,358.9, hit,1,0
603,5, T_Scon, T_Scon_DRRR,602.4, hit,2,0
604,5, T_Sinc, T_Sinc_URRR,293.8, hit,2,0
605,5, T_Sinc, T_Sinc_URRR,289.2, hit,2,0
606,5, T_Scon, T_Scon_DRRR,312.6, incorrect,1,1
607,5, T_Sinc, T_Sinc_DGLG,332.1, hit,1,0
608,5, T_Sinc, T_Sinc_DGLG,383.5, hit,1,0
609,5, T_Sinc, T_Sinc_DGLG,375, hit,1,0
610,5, T_Sinc, T_Sinc_DGLG,514.5, hit,1,0
611,5, T_Sinc, T_Sinc_URRR,413.9, hit,2,0
612,5, T_Sinc, T_Sinc_URRR,361.3, hit,2,0
613,5, T_Sinc, T_Sinc_DGLG,352.5, incorrect,2,1
614,5, T_Sinc, T_Sinc_DGLG,367.9, hit,1,0
615,5, T_Sinc, T_Sinc_URRR,327.3, hit,2,0
616,5, T_Scon, T_Scon_DRRR,326.8, hit,2,0
617,5, T_Sinc, T_Sinc_DGLG,614.2, hit,1,0
618,5, T_Sinc, T_Sinc_DGLG,337.7, hit,1,0
619,5, T_Sinc, T_Sinc_DGLG,325.1, hit,1,0
620,5, T_Sinc, T_Sinc_URRR,360.6, hit,2,0
621,5, T_Sinc, T_Sinc_DGLG,411.9, hit,1,0
622,5, T_Sinc, T_Sinc_URRR,487.3, hit,2,0
623,5, T_Sinc, T_Sinc_URRR,298.8, hit,2,0
624,5, T_Sinc, T_Sinc_DGLG,414.2, hit,1,0
625,5, T_Sinc, T_Sinc_DGLG,441.7, hit,1,0
626,5, T_Sinc, T_Sinc_URRR,533.1, hit,2,0
627,5, T_Sinc, T_Sinc_URRR,416.6, hit,2,0
628,5, T_Sinc, T_Sinc_DGLG,288, hit,1,0
629,5, T_Scon, T_Scon_UGLG,395.5, hit,1,0
630,5, T_Scon, T_Scon_UGLG,490.9, hit,1,0
631,5, T_Sinc, T_Sinc_DGLG,462.3, hit,1,0
632,5, T_Sinc, T_Sinc_DGLG,353.7, hit,1,0
633,5, T_Sinc, T_Sinc_URRR,369.2, hit,2,0
634,5, T_Sinc, T_Sinc_URRR,516.6, hit,2,0
635,5, T_Scon, T_Scon_DRRR,436.1, hit,2,0
636,5, T_Sinc, T_Sinc_URRR,503.5, hit,2,0
637,5, T_Sinc, T_Sinc_DGLG,411, hit,1,0
638,5, T_Sinc, T_Sinc_URRR,406.3, hit,2,0
639,5, T_Sinc, T_Sinc_DGLG,393.7, hit,1,0
640,5, T_Sinc, T_Sinc_DGLG,417.2, hit,1,0
641,5, T_Scon, T_Scon_UGLG,380.7, hit,1,0
642,5, T_Sinc, T_Sinc_URRR,308.1, hit,2,0
643,5, T_Sinc, T_Sinc_URRR,447.6, hit,2,0
644,5, T_Scon, T_Scon_DRRR,539, hit,2,0
645,5, T_Sinc, T_Sinc_URRR,470.5, hit,2,0
646,5, T_Sinc, T_Sinc_URRR,301.8, hit,2,0
647,5, T_Scon, T_Scon_UGLG,361.3, hit,1,0
648,5, T_Sinc, T_Sinc_URRR,340.7, hit,2,0
649,5, T_Sinc, T_Sinc_DGLG,404, hit,1,0
650,5, T_Scon, T_Scon_UGLG,355.4, incorrect,2,1
651,5, T_Scon, T_Scon_UGLG,302.7, hit,1,0
652,5, T_Scon, T_Scon_UGLG,354.2, hit,1,0
653,5, T_Sinc, T_Sinc_URRR,365.6, hit,2,0
654,5, T_Scon, T_Scon_DRRR,345.1, hit,2,0
655,5, T_Scon, T_Scon_DRRR,292.5, hit,2,0
656,5, T_Sinc, T_Sinc_URRR,300, hit,2,0
657,5, T_Sinc, T_Sinc_DGLG,303.4, incorrect,2,1
658,5, T_Sinc, T_Sinc_URRR,434.8, hit,2,0
659,5, T_Sinc, T_Sinc_DGLG,406.3, hit,1,0
660,5, T_Sinc, T_Sinc_DGLG,285.7, hit,1,0
661,5, T_Scon, T_Scon_DRRR,297.2, incorrect,1,1
662,5, T_Sinc, T_Sinc_URRR,392.6, hit,2,0
663,5, T_Sinc, T_Sinc_URRR,488.1, hit,2,0
664,5, T_Scon, T_Scon_UGLG,443.5, hit,1,0
665,5, T_Sinc, T_Sinc_URRR,351, hit,2,0
666,5, T_Sinc, T_Sinc_DGLG,366.3, incorrect,2,1
667,5, T_Sinc, T_Sinc_DGLG,445.8, hit,1,0
668,5, T_Sinc, T_Sinc_URRR,517.2, hit,2,0
669,5, T_Sinc, T_Sinc_URRR,420.7, hit,2,0
670,5, T_Sinc, T_Sinc_URRR,356.1, hit,2,0
671,5, T_Sinc, T_Sinc_URRR,351.5, hit,2,0
672,5, T_Sinc, T_Sinc_DGLG,403, hit,1,0
673,5, T_Scon, T_Scon_DRRR,406.4, hit,2,0
674,5, T_Sinc, T_Sinc_DGLG,397.9, hit,1,0
675,5, T_Sinc, T_Sinc_URRR,365.3, hit,2,0
676,5, T_Sinc, T_Sinc_DGLG,400.8, hit,1,0
677,5, T_Sinc, T_Sinc_URRR,396.1, hit,2,0
678,5, T_Sinc, T_Sinc_DGLG,363.6, hit,1,0
679,5, T_Sinc, T_Sinc_DGLG,375, hit,1,0
680,5, T_Sinc, T_Sinc_URRR,378.5, hit,2,0
681,5, T_Scon, T_Scon_DRRR,417.9, hit,2,0
682,5, T_Sinc, T_Sinc_DGLG,449.4, hit,1,0
683,5, T_Scon, T_Scon_UGLG,508.8, hit,1,0
684,5, T_Scon, T_Scon_DRRR,544.1, hit,2,0
685,5, T_Sinc, T_Sinc_DGLG,471.5, hit,1,0
686,5, T_Sinc, T_Sinc_URRR,410.8, hit,2,0
687,5, T_Sinc, T_Sinc_DGLG,418.3, hit,1,0
688,5, T_Scon, T_Scon_UGLG,505.7, hit,1,0
689,5, T_Sinc, T_Sinc_DGLG,421.1, hit,1,0
690,5, T_Scon, T_Scon_DRRR,344.5, hit,2,0
691,5, T_Scon, T_Scon_UGLG,408, incorrect,2,1
692,5, T_Sinc, T_Sinc_DGLG,507.4, hit,1,0
693,5, T_Scon, T_Scon_DRRR,486.9, hit,2,0
694,5, T_Sinc, T_Sinc_URRR,478.3, hit,2,0
695,5, T_Sinc, T_Sinc_DGLG,301.8, hit,1,0
696,5, T_Scon, T_Scon_DRRR,297.2, hit,2,0
697,5, T_Sinc, T_Sinc_DGLG,632.7, hit,1,0
698,5, T_Scon, T_Scon_UGLG,468.1, incorrect,2,1
699,5, T_Sinc, T_Sinc_URRR,459.6, hit,2,0
700,5, T_Sinc, T_Sinc_URRR,550.9, hit,2,0
701,5, T_Sinc, T_Sinc_URRR,458.4, hit,2,0
702,5, T_Sinc, T_Sinc_URRR,261.8, hit,2,0
703,5, T_Sinc, T_Sinc_DGLG,385.3, hit,1,0
704,5, T_Sinc, T_Sinc_DGLG,448.7, hit,1,0
705,5, T_Sinc, T_Sinc_DGLG,376.2, hit,1,0
706,5, T_Sinc, T_Sinc_URRR,347.6, hit,2,0
707,5, T_Sinc, T_Sinc_URRR,399.1, hit,2,0
708,5, T_Scon, T_Scon_DRRR,426.5, incorrect,1,1
709,5, T_Sinc, T_Sinc_DGLG,274, hit,1,0
710,5, T_Sinc, T_Sinc_URRR,349.3, hit,2,0
711,5, T_Scon, T_Scon_UGLG,332.7, hit,1,0
712,5, T_Scon, T_Scon_UGLG,572.1, hit,1,0
713,5, T_Sinc, T_Sinc_DGLG,471.6, hit,1,0
714,5, T_Sinc, T_Sinc_URRR,467.1, hit,2,0
715,5, T_Scon, T_Scon_DRRR,398.5, hit,2,0
716,5, T_Sinc, T_Sinc_URRR,338, hit,2,0
717,5, T_Scon, T_Scon_UGLG,437.4, hit,1,0
718,5, T_Sinc, T_Sinc_URRR,360.9, hit,2,0
719,5, T_Sinc, T_Sinc_DGLG,404.2, hit,1,0
720,5, T_Sinc, T_Sinc_DGLG,407.7, hit,1,0
721,6, T_Sinc, T_Sinc_URRR,457.7, hit,2,0
722,6, T_Scon, T_Scon_DRRR,393.2, hit,2,0
723,6, T_Sinc, T_Sinc_URRR,332.6, hit,2,0
724,6, T_Sinc, T_Sinc_URRR,344, hit,2,0
725,6, T_Sinc, T_Sinc_URRR,263.5, hit,2,0
726,6, T_Sinc, T_Sinc_DGLG,375, incorrect,2,1
727,6, T_Sinc, T_Sinc_DGLG,466.4, hit,1,0
728,6, T_Sinc, T_Sinc_DGLG,349.8, hit,1,0
729,6, T_Sinc, T_Sinc_DGLG,329.3, hit,1,0
730,6, T_Sinc, T_Sinc_URRR,508.6, hit,2,0
731,6, T_Sinc, T_Sinc_URRR,340.1, hit,2,0
732,6, T_Sinc, T_Sinc_URRR,503.5, hit,2,0
733,6, T_Sinc, T_Sinc_DGLG,351, hit,1,0
734,6, T_Sinc, T_Sinc_URRR,438.4, hit,2,0
735,6, T_Sinc, T_Sinc_URRR,457.9, hit,2,0
736,6, T_Scon, T_Scon_DRRR,441.3, hit,2,0
737,6, T_Scon, T_Scon_DRRR,392.8, hit,2,0
738,6, T_Sinc, T_Sinc_URRR,536.2, hit,2,0
739,6, T_Sinc, T_Sinc_URRR,355.7, hit,2,0
740,6, T_Sinc, T_Sinc_DGLG,439, hit,1,0
741,6, T_Sinc, T_Sinc_DGLG,394.4, hit,1,0
742,6, T_Sinc, T_Sinc_DGLG,429.9, hit,1,0
743,6, T_Scon, T_Scon_UGLG,457.3, incorrect,2,1
744,6, T_Scon, T_Scon_DRRR,632.8, hit,2,0
745,6, T_Sinc, T_Sinc_URRR,460.3, hit,2,0
746,6, T_Sinc, T_Sinc_DGLG,423.7, hit,1,0
747,6, T_Sinc, T_Sinc_DGLG,571, hit,1,0
748,6, T_Sinc, T_Sinc_URRR,366.5, hit,2,0
749,6, T_Sinc, T_Sinc_URRR,385.9, hit,2,0
750,6, T_Sinc, T_Sinc_DGLG,593.4, hit,1,0
751,6, T_Sinc, T_Sinc_URRR,404.8, hit,2,0
752,6, T_Sinc, T_Sinc_URRR,416.3, hit,2,0
753,6, T_Scon, T_Scon_UGLG,483.7, hit,1,0
754,6, T_Sinc, T_Sinc_URRR,327.2, hit,2,0
755,6, T_Sinc, T_Sinc_DGLG,426.6, hit,1,0
756,6, T_Sinc, T_Sinc_URRR,342.1, hit,2,0
757,6, T_Sinc, T_Sinc_DGLG,473.2, hit,1,0
758,6, T_Scon, T_Scon_DRRR,428.6, hit,2,0
759,6, T_Sinc, T_Sinc_URRR,328.1, hit,2,0
760,6, T_Sinc, T_Sinc_DGLG,403.5, hit,1,0
761,6, T_Sinc, T_Sinc_DGLG,391, hit,1,0
762,6, T_Sinc, T_Sinc_DGLG,398.4, hit,1,0
763,6, T_Sinc, T_Sinc_DGLG,521.8, hit,1,0
764,6, T_Sinc, T_Sinc_URRR,301.2, hit,2,0
765,6, T_Sinc, T_Sinc_DGLG,256.7, incorrect,2,1
766,6, T_Sinc, T_Sinc_DGLG,412.1, hit,1,0
767,6, T_Sinc, T_Sinc_DGLG,447.6, hit,1,0
768,6, T_Sinc, T_Sinc_DGLG,291, hit,1,0
769,6, T_Sinc, T_Sinc_DGLG,354.4, hit,1,0
770,6, T_Scon, T_Scon_UGLG,373.9, hit,1,0
771,6, T_Sinc, T_Sinc_URRR,389.3, hit,2,0
772,6, T_Sinc, T_Sinc_DGLG,568.8, hit,1,0
773,6, T_Sinc, T_Sinc_URRR,436.2, hit,2,0
774,6, T_Sinc, T_Sinc_URRR,463.7, hit,2,0
775,6, T_Sinc, T_Sinc_DGLG,695, hit,1,0
776,6, T_Scon, T_Scon_UGLG,446.4, hit,1,0
777,6, T_Scon, T_Scon_UGLG,369.9, hit,1,0
778,6, T_Scon, T_Scon_UGLG,325.4, hit,1,0
779,6, T_Sinc, T_Sinc_URRR,376.8, hit,2,0
780,6, T_Sinc, T_Sinc_URRR,408.3, hit,2,0
781,6, T_Scon, T_Scon_UGLG,451.7, hit,1,0
782,6, T_Scon, T_Scon_UGLG,499.2, hit,1,0
783,6, T_Sinc, T_Sinc_DGLG,586.6, hit,1,0
784,6, T_Sinc, T_Sinc_DGLG,622.1, hit,1,0
785,6, T_Sinc, T_Sinc_URRR,385.5, hit,2,0
786,6, T_Sinc, T_Sinc_URRR,632.9, hit,2,0
787,6, T_Sinc, T_Sinc_DGLG,580.4, hit,1,0
788,6, T_Scon, T_Scon_DRRR,619.8, hit,2,0
789,6, T_Sinc, T_Sinc_DGLG,375.3, hit,1,0
790,6, T_Sinc, T_Sinc_URRR,374.6, hit,2,0
791,6, T_Sinc, T_Sinc_DGLG,394.1, hit,1,0
792,6, T_Sinc, T_Sinc_DGLG,497.5, hit,1,0
793,6, T_Sinc, T_Sinc_DGLG,416.7, hit,1,0
794,6, T_Sinc, T_Sinc_DGLG,324.1, hit,1,0
795,6, T_Scon, T_Scon_DRRR,363.5, hit,2,0
796,6, T_Sinc, T_Sinc_DGLG,567, hit,1,0
797,6, T_Sinc, T_Sinc_DGLG,338.4, hit,1,0
798,6, T_Sinc, T_Sinc_URRR,349.9, hit,2,0
799,6, T_Sinc, T_Sinc_URRR,369.3, hit,2,0
800,6, T_Sinc, T_Sinc_URRR,424.8, hit,2,0
801,6, T_Sinc, T_Sinc_URRR,492.2, hit,2,0
802,6, T_Scon, T_Scon_DRRR,351.7, hit,2,0
803,6, T_Scon, T_Scon_UGLG,323.1, hit,1,0
804,6, T_Sinc, T_Sinc_URRR,350.6, hit,2,0
805,6, T_Sinc, T_Sinc_URRR,398, hit,2,0
806,6, T_Sinc, T_Sinc_DGLG,361.5, hit,1,0
807,6, T_Sinc, T_Sinc_URRR,328.8, hit,2,0
808,6, T_Sinc, T_Sinc_URRR,380.3, hit,2,0
809,6, T_Scon, T_Scon_UGLG,423.7, hit,1,0
810,6, T_Sinc, T_Sinc_DGLG,403.2, hit,1,0
811,6, T_Scon, T_Scon_DRRR,462.6, hit,2,0
812,6, T_Sinc, T_Sinc_URRR,434, hit,2,0
813,6, T_Scon, T_Scon_UGLG,405.5, hit,1,0
814,6, T_Sinc, T_Sinc_DGLG,360.9, hit,1,0
815,6, T_Sinc, T_Sinc_DGLG,392.4, hit,1,0
816,6, T_Sinc, T_Sinc_URRR,827.8, hit,2,2
817,6, T_Sinc, T_Sinc_DGLG,539.2, hit,1,0
818,6, T_Sinc, T_Sinc_URRR,610.6, hit,2,0
819,6, T_Sinc, T_Sinc_URRR,362.1, hit,2,0
820,6, T_Sinc, T_Sinc_URRR,325.5, hit,2,0
821,6, T_Scon, T_Scon_DRRR,377, hit,2,0
822,6, T_Scon, T_Scon_UGLG,388.4, hit,1,0
823,6, T_Sinc, T_Sinc_DGLG,499.9, hit,1,0
824,6, T_Sinc, T_Sinc_DGLG,315.3, hit,1,0
825,6, T_Sinc, T_Sinc_DGLG,286.7, hit,1,0
826,6, T_Sinc, T_Sinc_URRR,402.1, hit,2,0
827,6, T_Sinc, T_Sinc_DGLG,325.6, hit,1,0
828,6, T_Sinc, T_Sinc_URRR,605, hit,2,0
829,6, T_Sinc, T_Sinc_DGLG,324.2, hit,1,0
830,6, T_Scon, T_Scon_DRRR,383.6, hit,2,0
831,6, T_Sinc, T_Sinc_URRR,371, hit,2,0
832,6, T_Scon, T_Scon_UGLG,362.5, incorrect,2,1
833,6, T_Sinc, T_Sinc_DGLG,317.9, hit,1,0
834,6, T_Scon, T_Scon_DRRR,449.4, hit,2,0
835,6, T_Sinc, T_Sinc_DGLG,260.8, incorrect,2,1
836,6, T_Scon, T_Scon_DRRR,368.2, incorrect,1,1
837,6, T_Scon, T_Scon_DRRR,375.7, hit,2,0
838,6, T_Sinc, T_Sinc_URRR,379.2, hit,2,0
839,6, T_Sinc, T_Sinc_DGLG,418.5, hit,1,0
840,6, T_Scon, T_Scon_UGLG,322, hit,1,0
841,6, T_Sinc, T_Sinc_URRR,357.4, hit,2,0
842,6, T_Sinc, T_Sinc_DGLG,324.9, hit,1,0
843,6, T_Sinc, T_Sinc_URRR,296.3, hit,2,0
844,6, T_Sinc, T_Sinc_DGLG,403.8, hit,1,0
845,6, T_Sinc, T_Sinc_DGLG,383.2, hit,1,0
846,6, T_Scon, T_Scon_DRRR,498.6, hit,2,0
847,6, T_Sinc, T_Sinc_URRR,482.1, hit,2,0
848,6, T_Sinc, T_Sinc_DGLG,457.4, hit,1,0
849,6, T_Sinc, T_Sinc_URRR,396.9, hit,2,0
850,6, T_Scon, T_Scon_DRRR,460.3, hit,2,0
851,6, T_Scon, T_Scon_UGLG,503.8, hit,1,0
852,6, T_Sinc, T_Sinc_URRR,395.2, hit,2,0
853,6, T_Sinc, T_Sinc_DGLG,366.7, hit,1,0
854,6, T_Sinc, T_Sinc_URRR,342.1, incorrect,1,1
855,6, T_Scon, T_Scon_DRRR,333.6, hit,2,0
856,6, T_Sinc, T_Sinc_DGLG,469, hit,1,0
857,6, T_Sinc, T_Sinc_DGLG,0.1, miss,3427400,1
858,6, T_Scon, T_Scon_UGLG,1295.9, hit,1,2
859,6, T_Sinc, T_Sinc_URRR,555.3, hit,2,0
860,6, T_Sinc, T_Sinc_URRR,474.7, hit,2,0
861,6, T_Scon, T_Scon_UGLG,1462.1, hit,1,2
862,6, T_Sinc, T_Sinc_URRR,721.6, hit,2,2
863,6, T_Scon, T_Scon_UGLG,501.1, hit,1,0
864,6, T_Scon, T_Scon_DRRR,752.5, hit,2,2
865,7, T_Sinc, T_Sinc_URRR,438.2, hit,2,0
866,7, T_Scon, T_Scon_DRRR,361.7, hit,2,0
867,7, T_Scon, T_Scon_DRRR,325.1, hit,2,0
868,7, T_Scon, T_Scon_UGLG,420.6, hit,1,0
869,7, T_Scon, T_Scon_DRRR,387.9, hit,2,0
870,7, T_Sinc, T_Sinc_URRR,443.3, hit,2,0
871,7, T_Sinc, T_Sinc_DGLG,470.8, hit,1,0
872,7, T_Scon, T_Scon_UGLG,410.2, hit,1,0
873,7, T_Scon, T_Scon_DRRR,377.7, hit,2,0
874,7, T_Scon, T_Scon_UGLG,341.1, hit,1,0
875,7, T_Scon, T_Scon_UGLG,408.5, hit,1,0
876,7, T_Scon, T_Scon_UGLG,368, hit,1,0
877,7, T_Scon, T_Scon_DRRR,527.4, hit,2,0
878,7, T_Scon, T_Scon_DRRR,398.9, hit,2,0
879,7, T_Scon, T_Scon_UGLG,634.3, hit,1,0
880,7, T_Sinc, T_Sinc_URRR,605.8, hit,2,0
881,7, T_Scon, T_Scon_DRRR,377.2, hit,2,0
882,7, T_Scon, T_Scon_UGLG,404.7, hit,1,0
883,7, T_Sinc, T_Sinc_DGLG,416.1, hit,1,0
884,7, T_Scon, T_Scon_UGLG,483.6, hit,1,0
885,7, T_Scon, T_Scon_UGLG,414.9, hit,1,0
886,7, T_Sinc, T_Sinc_DGLG,482.4, hit,1,0
887,7, T_Scon, T_Scon_UGLG,321.8, hit,1,0
888,7, T_Scon, T_Scon_UGLG,365.2, hit,1,0
889,7, T_Scon, T_Scon_UGLG,464.7, hit,1,0
890,7, T_Scon, T_Scon_UGLG,556.1, hit,1,0
891,7, T_Scon, T_Scon_UGLG,335.6, hit,1,0
892,7, T_Scon, T_Scon_DRRR,339, hit,2,0
893,7, T_Scon, T_Scon_DRRR,390.5, hit,2,0
894,7, T_Sinc, T_Sinc_URRR,377.9, hit,2,0
895,7, T_Scon, T_Scon_UGLG,413.4, hit,1,0
896,7, T_Scon, T_Scon_UGLG,276.7, hit,1,0
897,7, T_Scon, T_Scon_UGLG,392.2, hit,1,0
898,7, T_Scon, T_Scon_UGLG,331.6, hit,1,0
899,7, T_Scon, T_Scon_UGLG,303.1, hit,1,0
900,7, T_Scon, T_Scon_UGLG,226.5, hit,1,0
901,7, T_Sinc, T_Sinc_URRR,369.8, hit,2,0
902,7, T_Scon, T_Scon_DRRR,361.1, hit,2,0
903,7, T_Sinc, T_Sinc_DGLG,416.5, hit,1,0
904,7, T_Scon, T_Scon_UGLG,380, hit,1,0
905,7, T_Scon, T_Scon_UGLG,319.4, hit,1,0
906,7, T_Sinc, T_Sinc_URRR,450.9, hit,2,0
907,7, T_Scon, T_Scon_UGLG,406.4, hit,1,0
908,7, T_Scon, T_Scon_UGLG,393.8, hit,1,0
909,7, T_Sinc, T_Sinc_URRR,405.2, hit,2,0
910,7, T_Scon, T_Scon_DRRR,544.6, hit,2,0
911,7, T_Sinc, T_Sinc_DGLG,396, hit,1,0
912,7, T_Scon, T_Scon_DRRR,543.5, hit,2,0
913,7, T_Scon, T_Scon_DRRR,490.9, hit,2,0
914,7, T_Scon, T_Scon_UGLG,330.4, hit,1,0
915,7, T_Scon, T_Scon_DRRR,373.8, hit,2,0
916,7, T_Sinc, T_Sinc_DGLG,441.2, hit,1,0
917,7, T_Scon, T_Scon_UGLG,436.7, hit,1,0
918,7, T_Sinc, T_Sinc_URRR,496.2, hit,2,0
919,7, T_Sinc, T_Sinc_DGLG,379.6, hit,1,0
920,7, T_Scon, T_Scon_DRRR,574.9, hit,2,0
921,7, T_Scon, T_Scon_DRRR,426.4, hit,2,0
922,7, T_Scon, T_Scon_UGLG,301.8, hit,1,0
923,7, T_Scon, T_Scon_UGLG,361.3, hit,1,0
924,7, T_Scon, T_Scon_DRRR,328.7, hit,2,0
925,7, T_Scon, T_Scon_UGLG,312.2, hit,1,0
926,7, T_Scon, T_Scon_DRRR,383.6, hit,2,0
927,7, T_Scon, T_Scon_DRRR,679.1, hit,2,0
928,7, T_Scon, T_Scon_UGLG,406.5, hit,1,0
929,7, T_Scon, T_Scon_DRRR,357.9, hit,2,0
930,7, T_Sinc, T_Sinc_URRR,473.3, hit,2,0
931,7, T_Scon, T_Scon_DRRR,356.8, hit,2,0
932,7, T_Scon, T_Scon_UGLG,368.2, hit,1,0
933,7, T_Scon, T_Scon_DRRR,459.7, hit,2,0
934,7, T_Sinc, T_Sinc_URRR,423.1, hit,2,0
935,7, T_Scon, T_Scon_DRRR,354.6, incorrect,1,1
936,7, T_Scon, T_Scon_UGLG,306, hit,1,0
937,7, T_Sinc, T_Sinc_URRR,313.2, hit,2,0
938,7, T_Scon, T_Scon_DRRR,280.6, hit,2,0
939,7, T_Sinc, T_Sinc_URRR,236, hit,2,0
940,7, T_Sinc, T_Sinc_DGLG,335.5, hit,1,0
941,7, T_Scon, T_Scon_DRRR,362.9, hit,2,0
942,7, T_Sinc, T_Sinc_DGLG,354.4, hit,1,0
943,7, T_Scon, T_Scon_DRRR,369.8, hit,2,0
944,7, T_Scon, T_Scon_DRRR,365.3, hit,2,0
945,7, T_Scon, T_Scon_UGLG,408.6, hit,1,0
946,7, T_Scon, T_Scon_DRRR,352.1, hit,2,0
947,7, T_Scon, T_Scon_UGLG,375.5, incorrect,2,1
948,7, T_Scon, T_Scon_UGLG,367, hit,1,0
949,7, T_Scon, T_Scon_DRRR,622.4, hit,2,0
950,7, T_Scon, T_Scon_DRRR,393.9, hit,2,0
951,7, T_Scon, T_Scon_UGLG,465.3, hit,1,0
952,7, T_Scon, T_Scon_DRRR,516.7, hit,2,0
953,7, T_Scon, T_Scon_DRRR,304.2, hit,2,0
954,7, T_Sinc, T_Sinc_DGLG,299.6, incorrect,2,1
955,7, T_Scon, T_Scon_UGLG,367.1, hit,1,0
956,7, T_Scon, T_Scon_DRRR,350.4, hit,2,0
957,7, T_Scon, T_Scon_DRRR,445.9, hit,2,0
958,7, T_Scon, T_Scon_DRRR,349.3, hit,2,0
959,7, T_Scon, T_Scon_DRRR,272.8, hit,2,0
960,7, T_Sinc, T_Sinc_DGLG,212.2, incorrect,2,1
961,7, T_Scon, T_Scon_UGLG,439.7, hit,1,0
962,7, T_Sinc, T_Sinc_URRR,427.1, hit,2,0
963,7, T_Scon, T_Scon_UGLG,618.6, hit,1,0
964,7, T_Sinc, T_Sinc_DGLG,506, hit,1,0
965,7, T_Scon, T_Scon_UGLG,373.4, hit,1,0
966,7, T_Scon, T_Scon_DRRR,328.8, hit,2,0
967,7, T_Sinc, T_Sinc_URRR,372.3, hit,2,0
968,7, T_Scon, T_Scon_UGLG,503.7, hit,1,0
969,7, T_Sinc, T_Sinc_URRR,435.2, hit,2,0
970,7, T_Sinc, T_Sinc_DGLG,438.6, hit,1,0
971,7, T_Scon, T_Scon_DRRR,506, hit,2,0
972,7, T_Sinc, T_Sinc_DGLG,877.5, hit,1,2
973,7, T_Scon, T_Scon_UGLG,384.7, hit,1,0
974,7, T_Scon, T_Scon_DRRR,356.1, hit,2,0
975,7, T_Scon, T_Scon_UGLG,299.5, hit,1,0
976,7, T_Sinc, T_Sinc_DGLG,375, incorrect,2,1
977,7, T_Scon, T_Scon_UGLG,358.4, hit,1,0
978,7, T_Sinc, T_Sinc_DGLG,337.9, hit,1,0
979,7, T_Scon, T_Scon_DRRR,365.2, hit,2,0
980,7, T_Scon, T_Scon_UGLG,332.7, hit,1,0
981,7, T_Sinc, T_Sinc_URRR,472.1, hit,2,0
982,7, T_Scon, T_Scon_DRRR,699.5, hit,2,0
983,7, T_Scon, T_Scon_DRRR,423, hit,2,0
984,7, T_Scon, T_Scon_UGLG,426.5, hit,1,0
985,7, T_Scon, T_Scon_UGLG,325.9, hit,1,0
986,7, T_Sinc, T_Sinc_DGLG,461.2, hit,1,0
987,7, T_Sinc, T_Sinc_URRR,456.7, hit,2,0
988,7, T_Scon, T_Scon_UGLG,400.1, hit,1,0
989,7, T_Scon, T_Scon_DRRR,367.6, hit,2,0
990,7, T_Scon, T_Scon_DRRR,339, incorrect,1,1
991,7, T_Sinc, T_Sinc_DGLG,290.5, hit,1,0
992,7, T_Scon, T_Scon_DRRR,357.9, hit,2,0
993,7, T_Scon, T_Scon_UGLG,325.4, hit,1,0
994,7, T_Scon, T_Scon_DRRR,588.8, hit,2,0
995,7, T_Scon, T_Scon_DRRR,468.2, hit,2,0
996,7, T_Scon, T_Scon_DRRR,391.7, hit,2,0
997,7, T_Scon, T_Scon_UGLG,555.2, hit,1,0
998,7, T_Scon, T_Scon_DRRR,322.5, hit,2,0
999,7, T_Scon, T_Scon_UGLG,358, hit,1,0
1000,7, T_Scon, T_Scon_DRRR,441.4, hit,2,0
1001,7, T_Scon, T_Scon_DRRR,420.9, hit,2,0
1002,7, T_Scon, T_Scon_UGLG,440.3, hit,1,0
1003,7, T_Scon, T_Scon_DRRR,959.7, hit,2,2
1004,7, T_Sinc, T_Sinc_URRR,571.2, hit,2,0
1005,7, T_Scon, T_Scon_UGLG,562.6, hit,1,0
1006,7, T_Scon, T_Scon_DRRR,402.1, hit,2,0
1007,7, T_Scon, T_Scon_UGLG,429.5, hit,1,0
1008,7, T_Scon, T_Scon_DRRR,332.9, hit,2,0
1009,8, T_Scon, T_Scon_UGLG,392.6, hit,1,0
1010,8, T_Scon, T_Scon_DRRR,540.1, hit,2,0
1011,8, T_Scon, T_Scon_UGLG,311.5, hit,1,0
1012,8, T_Scon, T_Scon_UGLG,386.9, hit,1,0
1013,8, T_Sinc, T_Sinc_DGLG,430.4, hit,1,0
1014,8, T_Scon, T_Scon_UGLG,361.8, hit,1,0
1015,8, T_Sinc, T_Sinc_DGLG,365.3, hit,1,0
1016,8, T_Sinc, T_Sinc_DGLG,324.7, hit,1,0
1017,8, T_Scon, T_Scon_DRRR,328.1, hit,2,0
1018,8, T_Scon, T_Scon_UGLG,251.5, hit,1,0
1019,8, T_Scon, T_Scon_DRRR,511, hit,2,0
1020,8, T_Scon, T_Scon_DRRR,410.4, hit,2,0
1021,8, T_Scon, T_Scon_DRRR,349.9, hit,2,0
1022,8, T_Scon, T_Scon_UGLG,361.4, hit,1,0
1023,8, T_Scon, T_Scon_UGLG,348.8, hit,1,0
1024,8, T_Sinc, T_Sinc_DGLG,516.2, hit,1,0
1025,8, T_Scon, T_Scon_DRRR,355.7, hit,2,0
1026,8, T_Sinc, T_Sinc_URRR,583.1, hit,2,0
1027,8, T_Sinc, T_Sinc_DGLG,338.6, hit,1,0
1028,8, T_Scon, T_Scon_DRRR,369.9, hit,2,0
1029,8, T_Sinc, T_Sinc_URRR,469.3, hit,2,0
1030,8, T_Scon, T_Scon_DRRR,352.8, hit,2,0
1031,8, T_Scon, T_Scon_UGLG,428.2, hit,1,0
1032,8, T_Sinc, T_Sinc_DGLG,579.7, hit,1,0
1033,8, T_Scon, T_Scon_UGLG,495.1, hit,1,0
1034,8, T_Scon, T_Scon_DRRR,418.6, hit,2,0
1035,8, T_Scon, T_Scon_DRRR,446, hit,2,0
1036,8, T_Scon, T_Scon_UGLG,337.5, hit,1,0
1037,8, T_Scon, T_Scon_DRRR,428.8, hit,2,0
1038,8, T_Scon, T_Scon_DRRR,348.3, hit,2,0
1039,8, T_Scon, T_Scon_UGLG,271.7, incorrect,2,1
1040,8, T_Scon, T_Scon_DRRR,375.2, hit,2,0
1041,8, T_Scon, T_Scon_UGLG,418.6, hit,1,0
1042,8, T_Scon, T_Scon_UGLG,442.1, hit,1,0
1043,8, T_Scon, T_Scon_UGLG,329.5, hit,1,0
1044,8, T_Scon, T_Scon_DRRR,449, hit,2,0
1045,8, T_Scon, T_Scon_UGLG,352.1, hit,1,0
1046,8, T_Scon, T_Scon_DRRR,323.5, hit,2,0
1047,8, T_Scon, T_Scon_DRRR,307, hit,2,0
1048,8, T_Sinc, T_Sinc_URRR,378.4, hit,2,0
1049,8, T_Scon, T_Scon_UGLG,329.9, hit,1,0
1050,8, T_Scon, T_Scon_UGLG,637.3, hit,1,0
1051,8, T_Sinc, T_Sinc_DGLG,460.8, hit,1,0
1052,8, T_Scon, T_Scon_UGLG,376.2, hit,1,0
1053,8, T_Scon, T_Scon_DRRR,467.7, hit,2,0
1054,8, T_Scon, T_Scon_DRRR,647.1, hit,2,0
1055,8, T_Scon, T_Scon_DRRR,810.4, hit,2,2
1056,8, T_Scon, T_Scon_DRRR,377.9, hit,2,0
1057,8, T_Scon, T_Scon_UGLG,885.4, hit,1,2
1058,8, T_Scon, T_Scon_UGLG,372.8, hit,1,0
1059,8, T_Scon, T_Scon_DRRR,548.2, hit,2,0
1060,8, T_Sinc, T_Sinc_DGLG,447.7, hit,1,0
1061,8, T_Sinc, T_Sinc_URRR,427.1, hit,2,0
1062,8, T_Sinc, T_Sinc_URRR,270.6, hit,2,0
1063,8, T_Scon, T_Scon_DRRR,394, incorrect,1,1
1064,8, T_Scon, T_Scon_DRRR,405.5, hit,2,0
1065,8, T_Sinc, T_Sinc_DGLG,424.9, hit,1,0
1066,8, T_Scon, T_Scon_DRRR,328.3, hit,2,0
1067,8, T_Scon, T_Scon_UGLG,535.7, hit,1,0
1068,8, T_Scon, T_Scon_DRRR,331.2, hit,2,0
1069,8, T_Sinc, T_Sinc_URRR,350.6, incorrect,1,1
1070,8, T_Sinc, T_Sinc_DGLG,342.1, hit,1,0
1071,8, T_Scon, T_Scon_UGLG,337.5, hit,1,0
1072,8, T_Scon, T_Scon_DRRR,469, hit,2,0
1073,8, T_Scon, T_Scon_DRRR,680.4, hit,2,0
1074,8, T_Sinc, T_Sinc_DGLG,303.9, hit,1,0
1075,8, T_Scon, T_Scon_DRRR,315.2, hit,2,0
1076,8, T_Sinc, T_Sinc_URRR,382.7, hit,2,0
1077,8, T_Scon, T_Scon_DRRR,370.1, hit,2,0
1078,8, T_Scon, T_Scon_DRRR,249.6, hit,2,0
1079,8, T_Scon, T_Scon_UGLG,369, hit,1,0
1080,8, T_Scon, T_Scon_DRRR,324.4, hit,2,0
1081,8, T_Scon, T_Scon_UGLG,331.6, hit,1,0
1082,8, T_Scon, T_Scon_DRRR,399, hit,2,0
1083,8, T_Scon, T_Scon_UGLG,262.5, hit,1,0
1084,8, T_Sinc, T_Sinc_URRR,409.9, hit,2,0
1085,8, T_Scon, T_Scon_DRRR,465.4, hit,2,0
1086,8, T_Scon, T_Scon_UGLG,380.8, hit,1,0
1087,8, T_Scon, T_Scon_UGLG,336.3, hit,1,0
1088,8, T_Scon, T_Scon_DRRR,283.7, hit,2,0
1089,8, T_Sinc, T_Sinc_URRR,375.1, hit,2,0
1090,8, T_Scon, T_Scon_UGLG,318.5, hit,1,0
1091,8, T_Scon, T_Scon_UGLG,362, hit,1,0
1092,8, T_Scon, T_Scon_UGLG,325.4, hit,1,0
1093,8, T_Scon, T_Scon_UGLG,328.8, hit,1,0
1094,8, T_Scon, T_Scon_UGLG,320.3, hit,1,0
1095,8, T_Scon, T_Scon_UGLG,395.7, hit,1,0
1096,8, T_Sinc, T_Sinc_URRR,375.2, hit,2,0
1097,8, T_Scon, T_Scon_UGLG,454.6, hit,1,0
1098,8, T_Scon, T_Scon_UGLG,510.1, hit,1,0
1099,8, T_Sinc, T_Sinc_URRR,517.5, hit,2,0
1100,8, T_Sinc, T_Sinc_DGLG,373, hit,1,0
1101,8, T_Sinc, T_Sinc_DGLG,376.3, hit,1,0
1102,8, T_Scon, T_Scon_UGLG,419.8, hit,1,0
1103,8, T_Scon, T_Scon_UGLG,311.2, hit,1,0
1104,8, T_Scon, T_Scon_UGLG,354.7, hit,1,0
1105,8, T_Scon, T_Scon_UGLG,406.1, hit,1,0
1106,8, T_Sinc, T_Sinc_DGLG,493.6, hit,1,0
1107,8, T_Scon, T_Scon_DRRR,409, hit,2,0
1108,8, T_Scon, T_Scon_DRRR,528.4, hit,2,0
1109,8, T_Scon, T_Scon_UGLG,371.9, hit,1,0
1110,8, T_Scon, T_Scon_UGLG,403.3, hit,1,0
1111,8, T_Sinc, T_Sinc_URRR,814.7, hit,2,2
1112,8, T_Scon, T_Scon_UGLG,410.1, hit,1,0
1113,8, T_Scon, T_Scon_UGLG,317.6, hit,1,0
1114,8, T_Scon, T_Scon_UGLG,553, hit,1,0
1115,8, T_Scon, T_Scon_UGLG,328.5, hit,1,0
1116,8, T_Scon, T_Scon_DRRR,923.9, hit,2,2
1117,9, T_Scon, T_Scon_UGLG,354.8, hit,1,0
1118,9, T_Scon, T_Scon_DRRR,414.2, hit,2,0
1119,9, T_Scon, T_Scon_UGLG,377.6, hit,1,0
1120,9, T_Scon, T_Scon_UGLG,381, hit,1,0
1121,9, T_Scon, T_Scon_UGLG,428.5, hit,1,0
1122,9, T_Scon, T_Scon_UGLG,360, hit,1,0
1123,9, T_Scon, T_Scon_DRRR,387.3, hit,2,0
1124,9, T_Scon, T_Scon_UGLG,366.8, hit,1,0
1125,9, T_Scon, T_Scon_DRRR,354.2, hit,2,0
1126,9, T_Scon, T_Scon_DRRR,485.7, hit,2,0
1127,9, T_Scon, T_Scon_DRRR,361.1, hit,2,0
1128,9, T_Scon, T_Scon_UGLG,404.6, hit,1,0
1129,9, T_Scon, T_Scon_UGLG,308, hit,1,0
1130,9, T_Scon, T_Scon_UGLG,387.5, hit,1,0
1131,9, T_Scon, T_Scon_DRRR,526.9, hit,2,0
1132,9, T_Scon, T_Scon_DRRR,594.2, hit,2,0
1133,9, T_Scon, T_Scon_DRRR,353.7, hit,2,0
1134,9, T_Scon, T_Scon_DRRR,381.1, hit,2,0
1135,9, T_Scon, T_Scon_UGLG,488.6, hit,1,0
1136,9, T_Sinc, T_Sinc_DGLG,444.1, hit,1,0
1137,9, T_Scon, T_Scon_UGLG,271.5, hit,1,0
1138,9, T_Scon, T_Scon_DRRR,346.9, hit,2,0
1139,9, T_Scon, T_Scon_DRRR,382.4, hit,2,0
1140,9, T_Scon, T_Scon_DRRR,337.8, hit,2,0
1141,9, T_Scon, T_Scon_DRRR,277.3, hit,2,0
1142,9, T_Sinc, T_Sinc_URRR,384.6, hit,2,0
1143,9, T_Scon, T_Scon_DRRR,368.1, hit,2,0
1144,9, T_Scon, T_Scon_UGLG,275.5, hit,1,0
1145,9, T_Scon, T_Scon_UGLG,279, hit,1,0
1146,9, T_Sinc, T_Sinc_DGLG,442.4, hit,1,0
1147,9, T_Scon, T_Scon_DRRR,421.9, hit,2,0
1148,9, T_Scon, T_Scon_UGLG,301.3, hit,1,0
1149,9, T_Scon, T_Scon_DRRR,504.7, hit,2,0
1150,9, T_Scon, T_Scon_UGLG,492.2, hit,1,0
1151,9, T_Sinc, T_Sinc_URRR,439.6, hit,2,0
1152,9, T_Scon, T_Scon_DRRR,667.1, hit,2,0
1153,9, T_Scon, T_Scon_UGLG,686.2, hit,1,0
1154,9, T_Sinc, T_Sinc_DGLG,473.7, hit,1,0
1155,9, T_Scon, T_Scon_UGLG,357.1, hit,1,0
1156,9, T_Scon, T_Scon_UGLG,296.6, hit,1,0
1157,9, T_Sinc, T_Sinc_DGLG,355.9, hit,1,0
1158,9, T_Sinc, T_Sinc_DGLG,251.4, hit,1,0
1159,9, T_Sinc, T_Sinc_DGLG,262.8, hit,1,0
1160,9, T_Scon, T_Scon_UGLG,414.2, hit,1,0
1161,9, T_Sinc, T_Sinc_DGLG,277.7, hit,1,0
1162,9, T_Scon, T_Scon_DRRR,405.1, hit,2,0
1163,9, T_Scon, T_Scon_DRRR,356.6, hit,2,0
1164,9, T_Scon, T_Scon_UGLG,440, hit,1,0
1165,9, T_Sinc, T_Sinc_DGLG,307.5, hit,1,0
1166,9, T_Scon, T_Scon_DRRR,510.9, hit,2,0
1167,9, T_Scon, T_Scon_UGLG,490.4, hit,1,0
1168,9, T_Scon, T_Scon_UGLG,513.7, hit,1,0
1169,9, T_Sinc, T_Sinc_DGLG,573.2, hit,1,0
1170,9, T_Sinc, T_Sinc_URRR,464.6, hit,2,0
1171,9, T_Scon, T_Scon_DRRR,340.1, hit,2,0
1172,9, T_Scon, T_Scon_UGLG,367.5, hit,1,0
1173,9, T_Sinc, T_Sinc_DGLG,503, hit,1,0
1174,9, T_Sinc, T_Sinc_URRR,362.3, hit,2,0
1175,9, T_Sinc, T_Sinc_URRR,521.8, hit,2,0
1176,9, T_Scon, T_Scon_UGLG,329.2, hit,1,0
1177,9, T_Sinc, T_Sinc_URRR,304.7, hit,2,0
1178,9, T_Scon, T_Scon_UGLG,252.1, hit,1,0
1179,9, T_Scon, T_Scon_UGLG,303.6, hit,1,0
1180,9, T_Scon, T_Scon_UGLG,283, hit,1,0
1181,9, T_Scon, T_Scon_UGLG,550.4, hit,1,0
1182,9, T_Scon, T_Scon_UGLG,285.9, hit,1,0
1183,9, T_Sinc, T_Sinc_URRR,769.3, hit,2,2
1184,9, T_Scon, T_Scon_DRRR,1016.8, hit,2,2
1185,9, T_Sinc, T_Sinc_URRR,716.2, hit,2,0
1186,9, T_Scon, T_Scon_DRRR,511.7, hit,2,0
1187,9, T_Scon, T_Scon_DRRR,475.1, hit,2,0
1188,9, T_Scon, T_Scon_DRRR,478.6, hit,2,0
1189,9, T_Sinc, T_Sinc_DGLG,361.7, hit,1,0
1190,9, T_Scon, T_Scon_DRRR,357.2, hit,2,0
1191,9, T_Scon, T_Scon_UGLG,336.6, hit,1,0
1192,9, T_Scon, T_Scon_DRRR,324, hit,2,0
1193,9, T_Sinc, T_Sinc_DGLG,339.5, hit,1,0
1194,9, T_Scon, T_Scon_UGLG,274.9, hit,1,0
1195,9, T_Sinc, T_Sinc_DGLG,314.4, hit,1,0
1196,9, T_Scon, T_Scon_DRRR,457.7, hit,2,0
1197,9, T_Sinc, T_Sinc_URRR,433.1, hit,2,0
1198,9, T_Scon, T_Scon_UGLG,368.6, hit,1,0
1199,9, T_Sinc, T_Sinc_URRR,320, hit,2,0
1200,9, T_Scon, T_Scon_DRRR,355.5, incorrect,1,1
1201,9, T_Sinc, T_Sinc_DGLG,523, hit,1,0
1202,9, T_Scon, T_Scon_DRRR,386.4, hit,2,0
1203,9, T_Scon, T_Scon_UGLG,325.9, hit,1,0
1204,9, T_Sinc, T_Sinc_DGLG,401.3, hit,1,0
1205,9, T_Scon, T_Scon_DRRR,508.7, hit,2,0
1206,9, T_Scon, T_Scon_UGLG,224.2, hit,1,0
1207,9, T_Scon, T_Scon_UGLG,347.6, hit,1,0
1208,9, T_Scon, T_Scon_DRRR,383, hit,2,0
1209,9, T_Sinc, T_Sinc_URRR,422.4, incorrect,1,1
1210,9, T_Scon, T_Scon_DRRR,433.9, hit,2,0
1211,9, T_Scon, T_Scon_UGLG,281.3, hit,1,0
1212,9, T_Scon, T_Scon_DRRR,484.8, hit,2,0
1213,9, T_Sinc, T_Sinc_URRR,284.2, incorrect,1,1
1214,9, T_Sinc, T_Sinc_URRR,383.7, hit,2,0
1215,9, T_Scon, T_Scon_DRRR,535.1, hit,2,0
1216,9, T_Sinc, T_Sinc_URRR,410.5, hit,2,0
1217,9, T_Scon, T_Scon_DRRR,429.9, hit,2,0
1218,9, T_Scon, T_Scon_DRRR,345.4, hit,2,0
1219,9, T_Sinc, T_Sinc_URRR,412.8, hit,2,0
1220,9, T_Sinc, T_Sinc_DGLG,468.3, hit,1,0
1221,9, T_Scon, T_Scon_UGLG,303.7, incorrect,2,1
1222,9, T_Scon, T_Scon_UGLG,359.2, hit,1,0
1223,9, T_Scon, T_Scon_UGLG,298.6, hit,1,0
1224,9, T_Scon, T_Scon_DRRR,390, hit,2,0
1225,9, T_Scon, T_Scon_UGLG,653.2, hit,1,0
1226,9, T_Scon, T_Scon_DRRR,332.6, hit,2,0
1227,9, T_Scon, T_Scon_UGLG,484.1, hit,1,0
1228,9, T_Scon, T_Scon_DRRR,423.5, hit,2,0
1229,9, T_Scon, T_Scon_UGLG,439, hit,1,0
1230,9, T_Scon, T_Scon_DRRR,386.4, hit,2,0
1231,9, T_Sinc, T_Sinc_DGLG,377.8, hit,1,0
1232,9, T_Scon, T_Scon_UGLG,333.2, hit,1,0
1233,9, T_Scon, T_Scon_DRRR,376.7, hit,2,0
1234,9, T_Scon, T_Scon_UGLG,292.1, hit,1,0
1235,9, T_Scon, T_Scon_UGLG,327.5, hit,1,0
1236,9, T_Scon, T_Scon_DRRR,339, incorrect,1,1
1237,9, T_Scon, T_Scon_UGLG,314.5, hit,1,0
1238,9, T_Scon, T_Scon_DRRR,441.9, hit,2,0
1239,9, T_Scon, T_Scon_DRRR,505.4, hit,2,0
1240,9, T_Scon, T_Scon_DRRR,432.7, hit,2,0
1241,9, T_Scon, T_Scon_DRRR,328.1, incorrect,1,1
1242,9, T_Scon, T_Scon_UGLG,487.6, hit,1,0
1243,9, T_Scon, T_Scon_DRRR,451, hit,2,0
1244,9, T_Sinc, T_Sinc_DGLG,534.5, hit,1,0
1245,9, T_Scon, T_Scon_UGLG,505.9, hit,1,0
1246,9, T_Scon, T_Scon_UGLG,645.4, hit,1,0
1247,9, T_Sinc, T_Sinc_URRR,752.8, hit,2,2
1248,9, T_Scon, T_Scon_UGLG,484.3, hit,1,0
1249,9, T_Sinc, T_Sinc_URRR,447.6, hit,2,0
1250,9, T_Scon, T_Scon_UGLG,699.1, hit,1,0
1251,9, T_Scon, T_Scon_DRRR,678.5, hit,2,0
1252,9, T_Scon, T_Scon_DRRR,602, hit,2,0
1253,9, T_Scon, T_Scon_UGLG,373.4, hit,1,0
1254,9, T_Scon, T_Scon_DRRR,332.9, hit,2,0
1255,9, T_Scon, T_Scon_UGLG,312.3, hit,1,0
1256,9, T_Scon, T_Scon_DRRR,331.8, hit,2,0
1257,9, T_Scon, T_Scon_DRRR,319.2, hit,2,0
1258,9, T_Sinc, T_Sinc_URRR,330.6, incorrect,1,1
1259,9, T_Scon, T_Scon_DRRR,286.1, hit,2,0
1260,9, T_Scon, T_Scon_UGLG,317.5, hit,1,0
