trial_index, block, condition, full_condition_code, RT, response_type, response_key, error_outlier
1, 1, T_Sinc, T_Sinc_DGLG, 390.1, hit, 1, 0
2, 1, T_Sinc, T_Sinc_URRR, 389.5, hit, 2, 0
3, 1, T_Sinc, T_Sinc_URRR, 481.0, hit, 2, 0
4, 1, T_Scon, T_Scon_UGLG, 396.3, hit, 1, 0
5, 1, T_Scon, T_Scon_DRRR, 431.8, hit, 2, 0
6, 1, T_Scon, T_Scon_DRRR, 291.3, hit, 2, 0
7, 1, T_Sinc, T_Sinc_URRR, 322.8, incorrect, 1, 1
8, 1, T_Sinc, T_Sinc_URRR, 326.1, hit, 2, 0
9, 1, T_Scon, T_Scon_DRRR, 549.6, hit, 2, 0
10, 1, T_Sinc, T_Sinc_URRR, 473.0, hit, 2, 0
11, 1, T_Sinc, T_Sinc_URRR, 376.4, hit, 2, 0
12, 1, T_Sinc, T_Sinc_URRR, 355.8, hit, 2, 0
13, 1, T_Scon, T_Scon_DRRR, 371.3, hit, 2, 0
14, 1, T_Scon, T_Scon_DRRR, 342.7, hit, 2, 0
15, 1, T_Sinc, T_Sinc_DGLG, 462.1, hit, 1, 0
16, 1, T_Scon, T_Scon_UGLG, 329.6, hit, 1, 0
17, 1, T_Sinc, T_Sinc_URRR, 385.1, hit, 2, 0
18, 1, T_Sinc, T_Sinc_DGLG, 644.5, hit, 1, 0
19, 1, T_Sinc, T_Sinc_DGLG, 695.9, hit, 1, 0
20, 1, T_Scon, T_Scon_DRRR, 299.4, hit, 2, 0
21, 1, T_Scon, T_Scon_UGLG, 438.8, hit, 1, 0
22, 1, T_Scon, T_Scon_UGLG, 638.2, hit, 1, 0
23, 1, T_Scon, T_Scon_UGLG, 645.6, hit, 1, 0
24, 1, T_Scon, T_Scon_UGLG, 537.1, hit, 1, 0
25, 1, T_Scon, T_Scon_DRRR, 412.6, hit, 2, 0
26, 1, T_Scon, T_Scon_UGLG, 411.9, hit, 1, 0
27, 1, T_Sinc, T_Sinc_DGLG, 483.4, hit, 1, 0
28, 1, T_Sinc, T_Sinc_URRR, 454.9, hit, 2, 0
29, 1, T_Scon, T_Scon_DRRR, 370.2, hit, 2, 0
30, 1, T_Sinc, T_Sinc_URRR, 449.7, hit, 2, 0
31, 1, T_Sinc, T_Sinc_URRR, 373.2, hit, 2, 0
32, 1, T_Sinc, T_Sinc_DGLG, 392.6, hit, 1, 0
33, 1, T_Sinc, T_Sinc_URRR, 404.0, hit, 2, 0
34, 1, T_Scon, T_Scon_UGLG, 423.4, hit, 1, 0
35, 1, T_Sinc, T_Sinc_URRR, 426.9, hit, 2, 0
36, 1, T_Scon, T_Scon_UGLG, 638.4, hit, 1, 0
37, 1, T_Scon, T_Scon_UGLG, 565.5, hit, 1, 0
38, 1, T_Scon, T_Scon_UGLG, 400.9, hit, 1, 0
39, 1, T_Sinc, T_Sinc_URRR, 372.3, hit, 2, 0
40, 1, T_Sinc, T_Sinc_DGLG, 339.8, hit, 1, 0
41, 1, T_Sinc, T_Sinc_URRR, 343.2, hit, 2, 0
42, 1, T_Scon, T_Scon_DRRR, 402.7, hit, 2, 0
43, 1, T_Sinc, T_Sinc_URRR, 410.1, hit, 2, 0
44, 1, T_Sinc, T_Sinc_DGLG, 365.5, hit, 1, 0
45, 1, T_Scon, T_Scon_DRRR, 601.0, hit, 2, 0
46, 1, T_Sinc, T_Sinc_DGLG, 420.4, hit, 1, 0
47, 1, T_Sinc, T_Sinc_URRR, 319.8, hit, 2, 0
48, 1, T_Scon, T_Scon_UGLG, 371.3, hit, 1, 0
49, 1, T_Scon, T_Scon_UGLG, 318.7, hit, 1, 0
50, 1, T_Sinc, T_Sinc_URRR, 450.1, hit, 2, 0
51, 1, T_Sinc, T_Sinc_DGLG, 405.6, hit, 1, 0
52, 1, T_Sinc, T_Sinc_DGLG, 373.0, incorrect, 2, 1
53, 1, T_Sinc, T_Sinc_URRR, 352.4, hit, 2, 0
54, 1, T_Sinc, T_Sinc_DGLG, 403.9, hit, 1, 0
55, 1, T_Sinc, T_Sinc_DGLG, 311.3, hit, 1, 0
56, 1, T_Scon, T_Scon_DRRR, 538.8, hit, 2, 0
57, 1, T_Scon, T_Scon_DRRR, 390.2, hit, 2, 0
58, 1, T_Scon, T_Scon_DRRR, 361.6, hit, 2, 0
59, 1, T_Scon, T_Scon_DRRR, 441.1, hit, 2, 0
60, 1, T_Scon, T_Scon_DRRR, 388.6, hit, 2, 0
61, 1, T_Scon, T_Scon_UGLG, 411.9, hit, 1, 0
62, 1, T_Sinc, T_Sinc_DGLG, 387.4, hit, 1, 0
63, 1, T_Sinc, T_Sinc_DGLG, 350.8, hit, 1, 0
64, 1, T_Sinc, T_Sinc_DGLG, 414.3, hit, 1, 0
65, 1, T_Scon, T_Scon_UGLG, 425.6, hit, 1, 0
66, 1, T_Scon, T_Scon_DRRR, 405.1, hit, 2, 0
67, 1, T_Sinc, T_Sinc_URRR, 408.6, hit, 2, 0
68, 1, T_Sinc, T_Sinc_URRR, 440.1, hit, 2, 0
69, 1, T_Sinc, T_Sinc_URRR, 303.4, hit, 2, 0
70, 1, T_Scon, T_Scon_DRRR, 614.9, hit, 2, 0
71, 1, T_Sinc, T_Sinc_DGLG, 606.4, hit, 1, 0
72, 1, T_Sinc, T_Sinc_DGLG, 401.7, hit, 1, 0
73, 1, T_Scon, T_Scon_DRRR, 377.0, hit, 2, 0
74, 1, T_Scon, T_Scon_DRRR, 364.4, hit, 2, 0
75, 1, T_Sinc, T_Sinc_URRR, 395.8, hit, 2, 0
76, 1, T_Scon, T_Scon_UGLG, 331.2, hit, 1, 0
77, 1, T_Sinc, T_Sinc_URRR, 374.7, hit, 2, 0
78, 1, T_Scon, T_Scon_UGLG, 386.1, hit, 1, 0
79, 1, T_Scon, T_Scon_UGLG, 297.5, hit, 1, 0
80, 1, T_Scon, T_Scon_UGLG, 457.0, hit, 1, 0
81, 1, T_Scon, T_Scon_DRRR, 452.4, hit, 2, 0
82, 1, T_Sinc, T_Sinc_URRR, 335.9, hit, 2, 0
83, 1, T_Scon, T_Scon_UGLG, 495.3, hit, 1, 0
84, 1, T_Sinc, T_Sinc_URRR, 570.7, hit, 2, 0
85, 1, T_Scon, T_Scon_DRRR, 422.2, hit, 2, 0
86, 1, T_Scon, T_Scon_UGLG, 309.6, hit, 1, 0
87, 1, T_Scon, T_Scon_UGLG, 517.0, hit, 1, 0
88, 1, T_Sinc, T_Sinc_DGLG, 440.5, hit, 1, 0
89, 1, T_Scon, T_Scon_UGLG, 316.0, incorrect, 2, 1
90, 1, T_Scon, T_Scon_UGLG, 439.3, hit, 1, 0
91, 1, T_Scon, T_Scon_UGLG, 442.8, hit, 1, 0
92, 1, T_Sinc, T_Sinc_URRR, 486.2, hit, 2, 0
93, 1, T_Scon, T_Scon_UGLG, 429.6, hit, 1, 0
94, 1, T_Sinc, T_Sinc_URRR, 489.1, hit, 2, 0
95, 1, T_Sinc, T_Sinc_DGLG, 436.5, hit, 1, 0
96, 1, T_Sinc, T_Sinc_URRR, 352.0, hit, 2, 0
97, 1, T_Scon, T_Scon_UGLG, 463.4, hit, 1, 0
98, 1, T_Scon, T_Scon_DRRR, 674.8, hit, 2, 0
99, 1, T_Scon, T_Scon_UGLG, 422.3, hit, 1, 0
100, 1, T_Sinc, T_Sinc_DGLG, 477.7, hit, 1, 0
101, 1, T_Scon, T_Scon_UGLG, 377.1, hit, 1, 0
102, 1, T_Scon, T_Scon_DRRR, 352.6, hit, 2, 0
103, 1, T_Scon, T_Scon_DRRR, 404.1, hit, 2, 0
104, 1, T_Scon, T_Scon_UGLG, 367.4, hit, 1, 0
105, 1, T_Scon, T_Scon_UGLG, 450.9, hit, 1, 0
106, 1, T_Sinc, T_Sinc_URRR, 426.3, hit, 2, 0
107, 1, T_Sinc, T_Sinc_DGLG, 501.8, hit, 1, 0
108, 1, T_Sinc, T_Sinc_DGLG, 389.2, hit, 1, 0
109, 1, T_Scon, T_Scon_DRRR, 524.4, hit, 2, 0
110, 1, T_Sinc, T_Sinc_DGLG, 407.9, hit, 1, 0
111, 1, T_Scon, T_Scon_DRRR, 319.2, hit, 2, 0
112, 1, T_Scon, T_Scon_DRRR, 330.7, hit, 2, 0
113, 1, T_Sinc, T_Sinc_DGLG, 318.1, hit, 1, 0
114, 1, T_Scon, T_Scon_DRRR, 801.5, hit, 2, 2
115, 1, T_Sinc, T_Sinc_URRR, 405.0, hit, 2, 0
116, 1, T_Scon, T_Scon_DRRR, 260.4, hit, 2, 0
117, 1, T_Sinc, T_Sinc_DGLG, 251.8, hit, 1, 0
118, 1, T_Scon, T_Scon_UGLG, 383.3, hit, 1, 0
119, 1, T_Sinc, T_Sinc_URRR, 338.7, hit, 2, 0
120, 1, T_Sinc, T_Sinc_URRR, 310.2, hit, 2, 0
121, 1, T_Scon, T_Scon_DRRR, 313.6, hit, 2, 0
122, 1, T_Sinc, T_Sinc_DGLG, 409.0, hit, 1, 0
123, 1, T_Sinc, T_Sinc_URRR, 460.5, hit, 2, 0
124, 1, T_Scon, T_Scon_DRRR, 479.9, hit, 2, 0
125, 1, T_Sinc, T_Sinc_DGLG, 279.3, incorrect, 2, 1
126, 1, T_Sinc, T_Sinc_DGLG, 362.8, hit, 1, 0
127, 1, T_Sinc, T_Sinc_DGLG, 294.2, hit, 1, 0
128, 1, T_Scon, T_Scon_UGLG, 413.6, hit, 1, 0
129, 1, T_Sinc, T_Sinc_DGLG, 349.1, hit, 1, 0
130, 1, T_Scon, T_Scon_DRRR, 320.5, hit, 2, 0
131, 1, T_Sinc, T_Sinc_DGLG, 508.0, hit, 1, 0
132, 1, T_Scon, T_Scon_UGLG, 371.4, hit, 1, 0
133, 1, T_Sinc, T_Sinc_DGLG, 398.8, hit, 1, 0
134, 1, T_Sinc, T_Sinc_DGLG, 370.3, hit, 1, 0
135, 1, T_Scon, T_Scon_DRRR, 457.7, hit, 2, 0
136, 1, T_Sinc, T_Sinc_URRR, 497.1, hit, 2, 0
137, 1, T_Scon, T_Scon_DRRR, 432.6, hit, 2, 0
138, 1, T_Sinc, T_Sinc_DGLG, 440.0, hit, 1, 0
139, 1, T_Sinc, T_Sinc_DGLG, 283.5, hit, 1, 0
140, 1, T_Scon, T_Scon_UGLG, 534.9, hit, 1, 0
141, 1, T_Scon, T_Scon_DRRR, 378.3, hit, 2, 0
142, 1, T_Scon, T_Scon_UGLG, 341.8, hit, 1, 0
143, 1, T_Sinc, T_Sinc_URRR, 329.3, incorrect, 1, 1
144, 1, T_Scon, T_Scon_DRRR, 540.6, hit, 2, 0
145, 2, T_Scon, T_Scon_DRRR, 405.9, hit, 2, 0
146, 2, T_Sinc, T_Sinc_URRR, 529.3, hit, 2, 0
147, 2, T_Scon, T_Scon_UGLG, 444.8, hit, 1, 0
148, 2, T_Sinc, T_Sinc_URRR, 424.1, hit, 2, 0
149, 2, T_Sinc, T_Sinc_URRR, 323.6, hit, 2, 0
150, 2, T_Scon, T_Scon_DRRR, 447.0, hit, 2, 0
151, 2, T_Scon, T_Scon_DRRR, 314.6, hit, 2, 0
152, 2, T_Sinc, T_Sinc_DGLG, 309.9, hit, 1, 0
153, 2, T_Sinc, T_Sinc_URRR, 345.4, hit, 2, 0
154, 2, T_Sinc, T_Sinc_URRR, 300.8, hit, 2, 0
155, 2, T_Scon, T_Scon_UGLG, 420.2, hit, 1, 0
156, 2, T_Scon, T_Scon_UGLG, 347.6, hit, 1, 0
157, 2, T_Sinc, T_Sinc_DGLG, 727.1, hit, 1, 0
158, 2, T_Scon, T_Scon_UGLG, 466.5, hit, 1, 0
159, 2, T_Scon, T_Scon_DRRR, 686.0, hit, 2, 0
160, 2, T_Scon, T_Scon_UGLG, 481.4, hit, 1, 0
161, 2, T_Sinc, T_Sinc_URRR, 468.9, hit, 2, 0
162, 2, T_Sinc, T_Sinc_DGLG, 444.3, hit, 1, 0
163, 2, T_Sinc, T_Sinc_DGLG, 479.7, hit, 1, 0
164, 2, T_Sinc, T_Sinc_DGLG, 687.2, hit, 1, 0
165, 2, T_Sinc, T_Sinc_DGLG, 514.6, hit, 1, 0
166, 2, T_Sinc, T_Sinc_DGLG, 334.1, hit, 1, 0
167, 2, T_Scon, T_Scon_DRRR, 409.5, hit, 2, 0
168, 2, T_Sinc, T_Sinc_URRR, 397.1, hit, 2, 0
169, 2, T_Sinc, T_Sinc_DGLG, 432.4, hit, 1, 0
170, 2, T_Scon, T_Scon_UGLG, 439.7, hit, 1, 0
171, 2, T_Sinc, T_Sinc_URRR, 655.2, hit, 2, 0
172, 2, T_Scon, T_Scon_DRRR, 370.7, hit, 2, 0
173, 2, T_Sinc, T_Sinc_URRR, 310.1, hit, 2, 0
174, 2, T_Sinc, T_Sinc_DGLG, 393.5, hit, 1, 0
175, 2, T_Scon, T_Scon_DRRR, 352.9, incorrect, 1, 1
176, 2, T_Sinc, T_Sinc_URRR, 480.4, hit, 2, 0
177, 2, T_Sinc, T_Sinc_DGLG, 291.9, hit, 1, 0
178, 2, T_Scon, T_Scon_UGLG, 487.3, hit, 1, 0
179, 2, T_Scon, T_Scon_DRRR, 446.7, hit, 2, 0
180, 2, T_Scon, T_Scon_DRRR, 346.2, hit, 2, 0
181, 2, T_Scon, T_Scon_DRRR, 401.3, hit, 2, 0
182, 2, T_Scon, T_Scon_UGLG, 492.7, hit, 1, 0
183, 2, T_Sinc, T_Sinc_URRR, 396.1, hit, 2, 0
184, 2, T_Sinc, T_Sinc_URRR, 367.6, hit, 2, 0
185, 2, T_Scon, T_Scon_UGLG, 419.0, hit, 1, 0
186, 2, T_Scon, T_Scon_UGLG, 486.5, hit, 1, 0
187, 2, T_Scon, T_Scon_UGLG, 429.9, hit, 1, 0
188, 2, T_Scon, T_Scon_DRRR, 457.3, hit, 2, 0
189, 2, T_Sinc, T_Sinc_DGLG, 484.8, hit, 1, 0
190, 2, T_Sinc, T_Sinc_URRR, 352.3, hit, 2, 0
191, 2, T_Sinc, T_Sinc_DGLG, 415.6, hit, 1, 0
192, 2, T_Sinc, T_Sinc_DGLG, 399.1, hit, 1, 0
193, 2, T_Scon, T_Scon_UGLG, 418.6, hit, 1, 0
194, 2, T_Sinc, T_Sinc_URRR, 565.9, hit, 2, 0
195, 2, T_Scon, T_Scon_DRRR, 413.4, hit, 2, 0
196, 2, T_Scon, T_Scon_DRRR, 600.9, hit, 2, 0
197, 2, T_Sinc, T_Sinc_URRR, 424.3, hit, 2, 0
198, 2, T_Sinc, T_Sinc_URRR, 399.7, hit, 2, 0
199, 2, T_Sinc, T_Sinc_DGLG, 563.2, hit, 1, 0
200, 2, T_Sinc, T_Sinc_URRR, 418.6, incorrect, 1, 1
201, 2, T_Sinc, T_Sinc_DGLG, 622.1, hit, 1, 0
202, 2, T_Sinc, T_Sinc_DGLG, 565.4, hit, 1, 0
203, 2, T_Sinc, T_Sinc_DGLG, 520.9, hit, 1, 0
204, 2, T_Scon, T_Scon_DRRR, 404.3, hit, 2, 0
205, 2, T_Sinc, T_Sinc_URRR, 403.7, hit, 2, 0
206, 2, T_Sinc, T_Sinc_DGLG, 447.2, hit, 1, 0
207, 2, T_Scon, T_Scon_UGLG, 530.7, hit, 1, 0
208, 2, T_Scon, T_Scon_DRRR, 446.0, hit, 2, 0
209, 2, T_Scon, T_Scon_DRRR, 393.5, hit, 2, 0
210, 2, T_Sinc, T_Sinc_URRR, 581.0, hit, 2, 0
211, 2, T_Scon, T_Scon_DRRR, 476.4, hit, 2, 0
212, 2, T_Scon, T_Scon_DRRR, 415.8, hit, 2, 0
213, 2, T_Scon, T_Scon_DRRR, 487.2, hit, 2, 0
214, 2, T_Sinc, T_Sinc_URRR, 342.7, hit, 2, 0
215, 2, T_Scon, T_Scon_UGLG, 450.2, hit, 1, 0
216, 2, T_Scon, T_Scon_UGLG, 397.5, hit, 1, 0
217, 2, T_Scon, T_Scon_UGLG, 388.8, hit, 1, 0
218, 2, T_Scon, T_Scon_UGLG, 432.1, hit, 1, 0
219, 2, T_Scon, T_Scon_DRRR, 339.6, hit, 2, 0
220, 2, T_Scon, T_Scon_UGLG, 383.0, hit, 1, 0
221, 2, T_Scon, T_Scon_DRRR, 370.5, hit, 2, 0
222, 2, T_Scon, T_Scon_UGLG, 421.9, hit, 1, 0
223, 2, T_Sinc, T_Sinc_DGLG, 421.3, hit, 1, 0
224, 2, T_Sinc, T_Sinc_DGLG, 372.8, hit, 1, 0
225, 2, T_Sinc, T_Sinc_URRR, 404.3, hit, 2, 0
226, 2, T_Scon, T_Scon_UGLG, 547.6, hit, 1, 0
227, 2, T_Scon, T_Scon_DRRR, 339.1, hit, 2, 0
228, 2, T_Sinc, T_Sinc_URRR, 346.6, hit, 2, 0
229, 2, T_Scon, T_Scon_UGLG, 406.0, hit, 1, 0
230, 2, T_Sinc, T_Sinc_URRR, 469.4, hit, 2, 0
231, 2, T_Scon, T_Scon_DRRR, 476.8, hit, 2, 0
232, 2, T_Sinc, T_Sinc_DGLG, 448.3, hit, 1, 0
233, 2, T_Scon, T_Scon_UGLG, 371.8, hit, 1, 0
234, 2, T_Scon, T_Scon_DRRR, 315.1, hit, 2, 0
235, 2, T_Scon, T_Scon_UGLG, 542.6, hit, 1, 0
236, 2, T_Scon, T_Scon_DRRR, 350.1, hit, 2, 0
237, 2, T_Scon, T_Scon_DRRR, 377.5, hit, 2, 0
238, 2, T_Sinc, T_Sinc_DGLG, 380.9, hit, 1, 0
239, 2, T_Sinc, T_Sinc_URRR, 444.3, hit, 2, 0
240, 2, T_Scon, T_Scon_UGLG, 407.8, hit, 1, 0
241, 2, T_Scon, T_Scon_DRRR, 323.2, hit, 2, 0
242, 2, T_Scon, T_Scon_UGLG, 326.7, hit, 1, 0
243, 2, T_Sinc, T_Sinc_DGLG, 502.1, hit, 1, 0
244, 2, T_Sinc, T_Sinc_URRR, 545.6, hit, 2, 0
245, 2, T_Sinc, T_Sinc_DGLG, 416.9, hit, 1, 0
246, 2, T_Scon, T_Scon_DRRR, 352.4, hit, 2, 0
247, 2, T_Sinc, T_Sinc_DGLG, 355.9, hit, 1, 0
248, 2, T_Scon, T_Scon_UGLG, 539.2, hit, 1, 0
249, 2, T_Sinc, T_Sinc_URRR, 382.7, hit, 2, 0
250, 2, T_Scon, T_Scon_UGLG, 406.2, hit, 1, 0
251, 2, T_Scon, T_Scon_UGLG, 565.6, hit, 1, 0
252, 2, T_Sinc, T_Sinc_DGLG, 417.0, hit, 1, 0
253, 2, T_Sinc, T_Sinc_URRR, 448.2, hit, 2, 0
254, 2, T_Sinc, T_Sinc_URRR, 419.6, hit, 2, 0
255, 2, T_Scon, T_Scon_DRRR, 447.0, hit, 2, 0
256, 2, T_Sinc, T_Sinc_DGLG, 522.5, hit, 1, 0
257, 2, T_Sinc, T_Sinc_URRR, 357.9, hit, 2, 0
258, 2, T_Scon, T_Scon_UGLG, 393.3, hit, 1, 0
259, 2, T_Scon, T_Scon_UGLG, 472.8, hit, 1, 0
260, 2, T_Scon, T_Scon_UGLG, 336.2, hit, 1, 0
261, 2, T_Sinc, T_Sinc_URRR, 427.6, hit, 2, 0
262, 2, T_Sinc, T_Sinc_DGLG, 399.1, hit, 1, 0
263, 2, T_Scon, T_Scon_DRRR, 422.5, hit, 2, 0
264, 2, T_Sinc, T_Sinc_DGLG, 497.9, hit, 1, 0
265, 2, T_Sinc, T_Sinc_URRR, 325.4, hit, 2, 0
266, 2, T_Scon, T_Scon_UGLG, 336.8, hit, 1, 0
267, 2, T_Scon, T_Scon_DRRR, 364.3, hit, 2, 0
268, 2, T_Scon, T_Scon_UGLG, 439.7, hit, 1, 0
269, 2, T_Sinc, T_Sinc_URRR, 347.1, hit, 2, 0
270, 2, T_Sinc, T_Sinc_DGLG, 446.6, hit, 1, 0
271, 2, T_Scon, T_Scon_UGLG, 426.0, hit, 1, 0
272, 2, T_Sinc, T_Sinc_DGLG, 429.4, hit, 1, 0
273, 2, T_Scon, T_Scon_DRRR, 312.9, hit, 2, 0
274, 2, T_Scon, T_Scon_UGLG, 348.4, hit, 1, 0
275, 2, T_Sinc, T_Sinc_DGLG, 407.7, hit, 1, 0
276, 2, T_Sinc, T_Sinc_DGLG, 399.2, hit, 1, 0
277, 2, T_Scon, T_Scon_DRRR, 394.6, hit, 2, 0
278, 2, T_Scon, T_Scon_UGLG, 390.1, hit, 1, 0
279, 2, T_Sinc, T_Sinc_URRR, 485.5, hit, 2, 0
280, 2, T_Scon, T_Scon_DRRR, 312.9, hit, 2, 0
281, 2, T_Sinc, T_Sinc_DGLG, 480.4, hit, 1, 0
282, 2, T_Scon, T_Scon_DRRR, 419.8, hit, 2, 0
283, 2, T_Scon, T_Scon_DRRR, 327.2, hit, 2, 0
284, 2, T_Sinc, T_Sinc_DGLG, 378.7, hit, 1, 0
285, 2, T_Sinc, T_Sinc_URRR, 354.2, hit, 2, 0
286, 2, T_Sinc, T_Sinc_URRR, 453.6, hit, 2, 0
287, 2, T_Sinc, T_Sinc_URRR, 301.0, hit, 2, 0
288, 2, T_Sinc, T_Sinc_DGLG, 424.5, hit, 1, 0
289, 3, T_Scon, T_Scon_DRRR, 403.5, hit, 2, 0
290, 3, T_Scon, T_Scon_UGLG, 382.9, hit, 1, 0
291, 3, T_Sinc, T_Sinc_URRR, 442.3, hit, 2, 0
292, 3, T_Scon, T_Scon_UGLG, 401.8, hit, 1, 0
293, 3, T_Scon, T_Scon_DRRR, 337.3, hit, 2, 0
294, 3, T_Scon, T_Scon_DRRR, 332.6, hit, 2, 0
295, 3, T_Sinc, T_Sinc_DGLG, 988.1, hit, 1, 2
296, 3, T_Scon, T_Scon_DRRR, 551.5, hit, 2, 0
297, 3, T_Scon, T_Scon_DRRR, 411.0, hit, 2, 0
298, 3, T_Sinc, T_Sinc_URRR, 446.4, hit, 2, 0
299, 3, T_Sinc, T_Sinc_DGLG, 449.8, hit, 1, 0
300, 3, T_Sinc, T_Sinc_DGLG, 445.3, hit, 1, 0
301, 3, T_Scon, T_Scon_DRRR, 528.7, hit, 2, 0
302, 3, T_Scon, T_Scon_UGLG, 428.1, hit, 1, 0
303, 3, T_Scon, T_Scon_DRRR, 275.6, hit, 2, 0
304, 3, T_Scon, T_Scon_UGLG, 419.0, hit, 1, 0
305, 3, T_Scon, T_Scon_UGLG, 462.4, hit, 1, 0
306, 3, T_Scon, T_Scon_DRRR, 305.9, hit, 2, 0
307, 3, T_Scon, T_Scon_UGLG, 481.3, hit, 1, 0
308, 3, T_Scon, T_Scon_UGLG, 1492.8, hit, 1, 2
309, 3, T_Scon, T_Scon_DRRR, 712.2, hit, 2, 0
310, 3, T_Scon, T_Scon_DRRR, 347.6, hit, 2, 0
311, 3, T_Sinc, T_Sinc_URRR, 371.1, hit, 2, 0
312, 3, T_Sinc, T_Sinc_DGLG, 322.6, hit, 1, 0
313, 3, T_Sinc, T_Sinc_URRR, 381.9, hit, 2, 0
314, 3, T_Sinc, T_Sinc_DGLG, 453.4, hit, 1, 0
315, 3, T_Sinc, T_Sinc_DGLG, 256.8, incorrect, 2, 1
316, 3, T_Scon, T_Scon_DRRR, 420.3, hit, 2, 0
317, 3, T_Sinc, T_Sinc_DGLG, 375.7, hit, 1, 0
318, 3, T_Sinc, T_Sinc_DGLG, 367.1, hit, 1, 0
319, 3, T_Scon, T_Scon_DRRR, 434.6, hit, 2, 0
320, 3, T_Scon, T_Scon_DRRR, 362.0, hit, 2, 0
321, 3, T_Scon, T_Scon_UGLG, 433.4, hit, 1, 0
322, 3, T_Sinc, T_Sinc_DGLG, 476.9, hit, 1, 0
323, 3, T_Sinc, T_Sinc_DGLG, 356.4, hit, 1, 0
324, 3, T_Sinc, T_Sinc_DGLG, 387.7, hit, 1, 0
325, 3, T_Scon, T_Scon_UGLG, 507.0, hit, 1, 0
326, 3, T_Scon, T_Scon_DRRR, 450.4, hit, 2, 0
327, 3, T_Scon, T_Scon_UGLG, 421.8, hit, 1, 0
328, 3, T_Sinc, T_Sinc_DGLG, 601.2, hit, 1, 0
329, 3, T_Scon, T_Scon_UGLG, 388.7, hit, 1, 0
330, 3, T_Sinc, T_Sinc_DGLG, 440.1, hit, 1, 0
331, 3, T_Sinc, T_Sinc_URRR, 391.5, hit, 2, 0
332, 3, T_Sinc, T_Sinc_URRR, 359.0, hit, 2, 0
333, 3, T_Scon, T_Scon_DRRR, 362.5, incorrect, 1, 1
334, 3, T_Sinc, T_Sinc_URRR, 313.8, hit, 2, 0
335, 3, T_Scon, T_Scon_DRRR, 313.3, hit, 2, 0
336, 3, T_Sinc, T_Sinc_URRR, 340.7, hit, 2, 0
337, 3, T_Sinc, T_Sinc_URRR, 344.1, hit, 2, 0
338, 3, T_Sinc, T_Sinc_URRR, 323.6, hit, 2, 0
339, 3, T_Scon, T_Scon_DRRR, 319.0, hit, 2, 0
340, 3, T_Scon, T_Scon_DRRR, 338.5, hit, 2, 0
341, 3, T_Scon, T_Scon_UGLG, 413.9, hit, 1, 0
342, 3, T_Sinc, T_Sinc_URRR, 545.3, hit, 2, 0
343, 3, T_Sinc, T_Sinc_DGLG, 460.8, hit, 1, 0
344, 3, T_Sinc, T_Sinc_URRR, 636.2, hit, 2, 0
345, 3, T_Scon, T_Scon_UGLG, 455.6, hit, 1, 0
346, 3, T_Scon, T_Scon_DRRR, 343.1, hit, 2, 0
347, 3, T_Sinc, T_Sinc_DGLG, 414.4, hit, 1, 0
348, 3, T_Sinc, T_Sinc_URRR, 361.9, hit, 2, 0
349, 3, T_Sinc, T_Sinc_URRR, 349.4, hit, 2, 0
350, 3, T_Scon, T_Scon_UGLG, 568.7, hit, 1, 0
351, 3, T_Scon, T_Scon_UGLG, 508.2, hit, 1, 0
352, 3, T_Scon, T_Scon_UGLG, 399.7, hit, 1, 0
353, 3, T_Sinc, T_Sinc_DGLG, 483.1, hit, 1, 0
354, 3, T_Scon, T_Scon_UGLG, 434.5, hit, 1, 0
355, 3, T_Scon, T_Scon_UGLG, 438.0, hit, 1, 0
356, 3, T_Sinc, T_Sinc_URRR, 353.4, hit, 2, 0
357, 3, T_Scon, T_Scon_UGLG, 444.9, hit, 1, 0
358, 3, T_Scon, T_Scon_UGLG, 376.3, hit, 1, 0
359, 3, T_Sinc, T_Sinc_DGLG, 355.7, hit, 1, 0
360, 3, T_Scon, T_Scon_DRRR, 403.2, hit, 2, 0
361, 3, T_Scon, T_Scon_UGLG, 426.3, hit, 1, 0
362, 3, T_Scon, T_Scon_UGLG, 353.8, hit, 1, 0
363, 3, T_Sinc, T_Sinc_URRR, 285.2, hit, 2, 0
364, 3, T_Sinc, T_Sinc_URRR, 296.6, hit, 2, 0
365, 3, T_Scon, T_Scon_DRRR, 344.0, hit, 2, 0
366, 3, T_Scon, T_Scon_DRRR, 339.5, hit, 2, 0
367, 3, T_Sinc, T_Sinc_DGLG, 515.0, hit, 1, 0
368, 3, T_Scon, T_Scon_UGLG, 734.3, hit, 1, 2
369, 3, T_Sinc, T_Sinc_DGLG, 385.8, hit, 1, 0
370, 3, T_Scon, T_Scon_DRRR, 317.3, hit, 2, 0
371, 3, T_Sinc, T_Sinc_URRR, 316.7, hit, 2, 0
372, 3, T_Sinc, T_Sinc_URRR, 320.1, hit, 2, 0
373, 3, T_Sinc, T_Sinc_DGLG, 331.6, hit, 1, 0
374, 3, T_Scon, T_Scon_DRRR, 507.0, hit, 2, 0
375, 3, T_Sinc, T_Sinc_DGLG, 434.4, hit, 1, 0
376, 3, T_Scon, T_Scon_UGLG, 309.9, hit, 1, 0
377, 3, T_Scon, T_Scon_UGLG, 377.3, hit, 1, 0
378, 3, T_Sinc, T_Sinc_URRR, 516.7, hit, 2, 0
379, 3, T_Sinc, T_Sinc_DGLG, 440.1, hit, 1, 0
380, 3, T_Scon, T_Scon_UGLG, 399.6, hit, 1, 0
381, 3, T_Scon, T_Scon_UGLG, 367.0, hit, 1, 0
382, 3, T_Sinc, T_Sinc_URRR, 318.4, hit, 2, 0
383, 3, T_Sinc, T_Sinc_DGLG, 385.9, hit, 1, 0
384, 3, T_Scon, T_Scon_DRRR, 453.4, hit, 2, 0
385, 3, T_Sinc, T_Sinc_DGLG, 348.7, hit, 1, 0
386, 3, T_Scon, T_Scon_UGLG, 424.2, hit, 1, 0
387, 3, T_Sinc, T_Sinc_URRR, 499.7, hit, 2, 0
388, 3, T_Scon, T_Scon_UGLG, 343.1, hit, 1, 0
389, 3, T_Scon, T_Scon_DRRR, 354.6, hit, 2, 0
390, 3, T_Sinc, T_Sinc_URRR, 430.0, hit, 2, 0
391, 3, T_Sinc, T_Sinc_URRR, 465.4, hit, 2, 0
392, 3, T_Scon, T_Scon_DRRR, 356.9, hit, 2, 0
393, 3, T_Scon, T_Scon_DRRR, 356.2, hit, 2, 0
394, 3, T_Scon, T_Scon_UGLG, 391.7, hit, 1, 0
395, 3, T_Sinc, T_Sinc_DGLG, 435.2, hit, 1, 0
396, 3, T_Scon, T_Scon_UGLG, 306.6, hit, 1, 0
397, 3, T_Scon, T_Scon_DRRR, 453.8, hit, 2, 0
398, 3, T_Sinc, T_Sinc_URRR, 301.2, hit, 2, 0
399, 3, T_Scon, T_Scon_UGLG, 380.5, hit, 1, 0
400, 3, T_Sinc, T_Sinc_URRR, 336.0, incorrect, 1, 1
401, 3, T_Scon, T_Scon_UGLG, 387.5, hit, 1, 0
402, 3, T_Scon, T_Scon_DRRR, 406.9, hit, 2, 0
403, 3, T_Sinc, T_Sinc_URRR, 394.3, hit, 2, 0
404, 3, T_Scon, T_Scon_DRRR, 297.8, hit, 2, 0
405, 3, T_Sinc, T_Sinc_DGLG, 409.2, hit, 1, 0
406, 3, T_Sinc, T_Sinc_URRR, 360.6, hit, 2, 0
407, 3, T_Sinc, T_Sinc_URRR, 380.1, hit, 2, 0
408, 3, T_Sinc, T_Sinc_DGLG, 427.6, hit, 1, 0
409, 3, T_Scon, T_Scon_DRRR, 342.9, hit, 2, 0
410, 3, T_Scon, T_Scon_DRRR, 338.4, hit, 2, 0
411, 3, T_Sinc, T_Sinc_DGLG, 469.8, hit, 1, 0
412, 3, T_Sinc, T_Sinc_DGLG, 437.3, hit, 1, 0
413, 3, T_Sinc, T_Sinc_URRR, 392.7, hit, 2, 0
414, 3, T_Sinc, T_Sinc_DGLG, 388.1, hit, 1, 0
415, 3, T_Sinc, T_Sinc_DGLG, 431.6, hit, 1, 0
416, 3, T_Scon, T_Scon_DRRR, 403.1, hit, 2, 0
417, 3, T_Sinc, T_Sinc_DGLG, 390.4, hit, 1, 0
418, 3, T_Sinc, T_Sinc_DGLG, 385.9, hit, 1, 0
419, 3, T_Sinc, T_Sinc_URRR, 405.4, hit, 2, 0
420, 3, T_Sinc, T_Sinc_DGLG, 372.7, hit, 1, 0
421, 3, T_Sinc, T_Sinc_URRR, 336.2, hit, 2, 0
422, 3, T_Sinc, T_Sinc_URRR, 363.7, hit, 2, 0
423, 3, T_Sinc, T_Sinc_DGLG, 367.1, hit, 1, 0
424, 3, T_Scon, T_Scon_DRRR, 314.4, hit, 2, 0
425, 3, T_Sinc, T_Sinc_URRR, 341.9, hit, 2, 0
426, 3, T_Scon, T_Scon_UGLG, 473.4, hit, 1, 0
427, 3, T_Scon, T_Scon_DRRR, 348.9, hit, 2, 0
428, 3, T_Sinc, T_Sinc_URRR, 572.2, hit, 2, 0
429, 3, T_Sinc, T_Sinc_DGLG, 383.7, hit, 1, 0
430, 3, T_Scon, T_Scon_UGLG, 391.2, hit, 1, 0
431, 3, T_Sinc, T_Sinc_URRR, 326.6, hit, 2, 0
432, 3, T_Scon, T_Scon_UGLG, 442.0, hit, 1, 0
433, 4, T_Scon, T_Scon_UGLG, 425.3, hit, 1, 0
434, 4, T_Scon, T_Scon_DRRR, 332.6, hit, 2, 0
435, 4, T_Sinc, T_Sinc_URRR, 344.1, incorrect, 1, 1
436, 4, T_Sinc, T_Sinc_DGLG, 411.5, hit, 1, 0
437, 4, T_Sinc, T_Sinc_URRR, 551.0, hit, 2, 0
438, 4, T_Scon, T_Scon_UGLG, 410.3, hit, 1, 0
439, 4, T_Scon, T_Scon_UGLG, 505.8, hit, 1, 0
440, 4, T_Sinc, T_Sinc_URRR, 357.3, hit, 2, 0
441, 4, T_Scon, T_Scon_DRRR, 348.7, hit, 2, 0
442, 4, T_Sinc, T_Sinc_URRR, 352.1, hit, 2, 0
443, 4, T_Sinc, T_Sinc_DGLG, 395.6, hit, 1, 0
444, 4, T_Sinc, T_Sinc_DGLG, 510.9, hit, 1, 0
445, 4, T_Sinc, T_Sinc_URRR, 338.4, hit, 2, 0
446, 4, T_Scon, T_Scon_DRRR, 381.9, hit, 2, 0
447, 4, T_Scon, T_Scon_UGLG, 377.2, hit, 1, 0
448, 4, T_Sinc, T_Sinc_URRR, 348.7, hit, 2, 0
449, 4, T_Sinc, T_Sinc_URRR, 376.2, hit, 2, 0
450, 4, T_Sinc, T_Sinc_URRR, 295.6, hit, 2, 0
451, 4, T_Scon, T_Scon_UGLG, 403.0, hit, 1, 0
452, 4, T_Sinc, T_Sinc_DGLG, 478.4, hit, 1, 0
453, 4, T_Sinc, T_Sinc_URRR, 361.9, hit, 2, 0
454, 4, T_Sinc, T_Sinc_URRR, 325.3, hit, 2, 0
455, 4, T_Sinc, T_Sinc_URRR, 584.7, hit, 2, 0
456, 4, T_Scon, T_Scon_DRRR, 472.2, hit, 2, 0
457, 4, T_Scon, T_Scon_DRRR, 387.7, hit, 2, 0
458, 4, T_Sinc, T_Sinc_DGLG, 391.0, hit, 1, 0
459, 4, T_Scon, T_Scon_DRRR, 418.5, hit, 2, 0
460, 4, T_Sinc, T_Sinc_URRR, 454.0, hit, 2, 0
461, 4, T_Scon, T_Scon_DRRR, 321.3, hit, 2, 0
462, 4, T_Scon, T_Scon_UGLG, 436.8, hit, 1, 0
463, 4, T_Sinc, T_Sinc_DGLG, 380.2, hit, 1, 0
464, 4, T_Sinc, T_Sinc_URRR, 551.7, hit, 2, 0
465, 4, T_Scon, T_Scon_DRRR, 343.0, hit, 2, 0
466, 4, T_Sinc, T_Sinc_DGLG, 334.5, hit, 1, 0
467, 4, T_Scon, T_Scon_UGLG, 538.0, hit, 1, 0
468, 4, T_Scon, T_Scon_DRRR, 369.5, hit, 2, 0
469, 4, T_Scon, T_Scon_DRRR, 424.6, hit, 2, 0
470, 4, T_Sinc, T_Sinc_DGLG, 392.0, hit, 1, 0
471, 4, T_Scon, T_Scon_UGLG, 403.4, hit, 1, 0
472, 4, T_Scon, T_Scon_UGLG, 358.9, hit, 1, 0
473, 4, T_Sinc, T_Sinc_URRR, 330.3, hit, 2, 0
474, 4, T_Scon, T_Scon_UGLG, 473.8, hit, 1, 0
475, 4, T_Scon, T_Scon_DRRR, 409.2, hit, 2, 0
476, 4, T_Sinc, T_Sinc_URRR, 528.6, hit, 2, 0
477, 4, T_Sinc, T_Sinc_URRR, 332.1, hit, 2, 0
478, 4, T_Sinc, T_Sinc_DGLG, 455.5, hit, 1, 0
479, 4, T_Sinc, T_Sinc_DGLG, 474.9, hit, 1, 0
480, 4, T_Scon, T_Scon_DRRR, 702.4, hit, 2, 0
481, 4, T_Sinc, T_Sinc_URRR, 729.8, hit, 2, 2
482, 4, T_Sinc, T_Sinc_DGLG, 749.3, hit, 1, 2
483, 4, T_Scon, T_Scon_UGLG, 596.7, hit, 1, 0
484, 4, T_Scon, T_Scon_DRRR, 388.1, hit, 2, 0
485, 4, T_Scon, T_Scon_DRRR, 407.6, hit, 2, 0
486, 4, T_Scon, T_Scon_DRRR, 435.0, hit, 2, 0
487, 4, T_Sinc, T_Sinc_URRR, 486.4, hit, 2, 0
488, 4, T_Sinc, T_Sinc_URRR, 353.9, hit, 2, 0
489, 4, T_Scon, T_Scon_UGLG, 429.4, hit, 1, 0
490, 4, T_Sinc, T_Sinc_URRR, 380.7, hit, 2, 0
491, 4, T_Sinc, T_Sinc_DGLG, 440.2, hit, 1, 0
492, 4, T_Sinc, T_Sinc_URRR, 347.6, hit, 2, 0
493, 4, T_Scon, T_Scon_DRRR, 323.1, hit, 2, 0
494, 4, T_Scon, T_Scon_DRRR, 430.5, hit, 2, 0
495, 4, T_Sinc, T_Sinc_DGLG, 489.9, hit, 1, 0
496, 4, T_Scon, T_Scon_UGLG, 453.4, hit, 1, 0
497, 4, T_Sinc, T_Sinc_DGLG, 628.9, hit, 1, 0
498, 4, T_Scon, T_Scon_DRRR, 384.2, hit, 2, 0
499, 4, T_Sinc, T_Sinc_URRR, 363.7, hit, 2, 0
500, 4, T_Scon, T_Scon_UGLG, 399.2, hit, 1, 0
501, 4, T_Scon, T_Scon_DRRR, 534.5, hit, 2, 0
502, 4, T_Sinc, T_Sinc_URRR, 366.0, hit, 2, 0
503, 4, T_Sinc, T_Sinc_DGLG, 421.5, hit, 1, 0
504, 4, T_Scon, T_Scon_DRRR, 412.8, hit, 2, 0
505, 4, T_Scon, T_Scon_DRRR, 356.1, hit, 2, 0
506, 4, T_Scon, T_Scon_UGLG, 415.5, hit, 1, 0
507, 4, T_Sinc, T_Sinc_URRR, 370.8, hit, 2, 0
508, 4, T_Sinc, T_Sinc_URRR, 430.4, hit, 2, 0
509, 4, T_Scon, T_Scon_UGLG, 337.8, hit, 1, 0
510, 4, T_Sinc, T_Sinc_URRR, 441.2, hit, 2, 0
511, 4, T_Sinc, T_Sinc_DGLG, 376.7, hit, 1, 0
512, 4, T_Sinc, T_Sinc_DGLG, 304.1, incorrect, 2, 1
513, 4, T_Scon, T_Scon_DRRR, 363.5, hit, 2, 0
514, 4, T_Sinc, T_Sinc_DGLG, 607.0, hit, 1, 0
515, 4, T_Scon, T_Scon_DRRR, 366.4, hit, 2, 0
516, 4, T_Scon, T_Scon_UGLG, 469.9, hit, 1, 0
517, 4, T_Sinc, T_Sinc_DGLG, 389.3, hit, 1, 0
518, 4, T_Scon, T_Scon_UGLG, 472.7, hit, 1, 0
519, 4, T_Sinc, T_Sinc_DGLG, 444.1, hit, 1, 0
520, 4, T_Scon, T_Scon_UGLG, 431.6, hit, 1, 0
521, 4, T_Sinc, T_Sinc_URRR, 459.0, hit, 2, 0
522, 4, T_Scon, T_Scon_UGLG, 426.5, hit, 1, 0
523, 4, T_Scon, T_Scon_UGLG, 357.9, hit, 1, 0
524, 4, T_Scon, T_Scon_UGLG, 337.3, hit, 1, 0
525, 4, T_Sinc, T_Sinc_DGLG, 392.8, hit, 1, 0
526, 4, T_Scon, T_Scon_DRRR, 372.2, hit, 2, 0
527, 4, T_Sinc, T_Sinc_URRR, 375.6, hit, 2, 0
528, 4, T_Scon, T_Scon_DRRR, 371.1, hit, 2, 0
529, 4, T_Scon, T_Scon_UGLG, 318.6, hit, 1, 0
530, 4, T_Sinc, T_Sinc_URRR, 461.9, hit, 2, 0
531, 4, T_Sinc, T_Sinc_DGLG, 377.4, hit, 1, 0
532, 4, T_Scon, T_Scon_UGLG, 452.8, hit, 1, 0
533, 4, T_Scon, T_Scon_UGLG, 376.3, hit, 1, 0
534, 4, T_Scon, T_Scon_DRRR, 347.7, hit, 2, 0
535, 4, T_Sinc, T_Sinc_DGLG, 391.1, hit, 1, 0
536, 4, T_Sinc, T_Sinc_URRR, 490.6, hit, 2, 0
537, 4, T_Scon, T_Scon_DRRR, 314.1, hit, 2, 0
538, 4, T_Scon, T_Scon_UGLG, 421.4, hit, 1, 0
539, 4, T_Scon, T_Scon_UGLG, 440.9, hit, 1, 0
540, 4, T_Sinc, T_Sinc_DGLG, 320.4, hit, 1, 0
541, 4, T_Scon, T_Scon_UGLG, 439.5, hit, 1, 0
542, 4, T_Scon, T_Scon_UGLG, 318.9, hit, 1, 0
543, 4, T_Scon, T_Scon_DRRR, 362.3, hit, 2, 0
544, 4, T_Sinc, T_Sinc_DGLG, 397.8, hit, 1, 0
545, 4, T_Sinc, T_Sinc_DGLG, 353.2, hit, 1, 0
546, 4, T_Sinc, T_Sinc_DGLG, 380.7, hit, 1, 0
547, 4, T_Scon, T_Scon_DRRR, 336.2, hit, 2, 0
548, 4, T_Sinc, T_Sinc_DGLG, 451.5, hit, 1, 0
549, 4, T_Scon, T_Scon_DRRR, 347.0, hit, 2, 0
550, 4, T_Scon, T_Scon_DRRR, 342.4, hit, 2, 0
551, 4, T_Scon, T_Scon_UGLG, 365.9, hit, 1, 0
552, 4, T_Scon, T_Scon_UGLG, 333.3, hit, 1, 0
553, 4, T_Sinc, T_Sinc_URRR, 564.7, hit, 2, 0
554, 4, T_Sinc, T_Sinc_DGLG, 380.2, hit, 1, 0
555, 4, T_Sinc, T_Sinc_DGLG, 451.6, hit, 1, 0
556, 4, T_Sinc, T_Sinc_DGLG, 571.0, hit, 1, 0
557, 4, T_Scon, T_Scon_UGLG, 378.5, hit, 1, 0
558, 4, T_Sinc, T_Sinc_DGLG, 365.9, hit, 1, 0
559, 4, T_Scon, T_Scon_DRRR, 593.3, hit, 2, 0
560, 4, T_Sinc, T_Sinc_DGLG, 416.8, hit, 1, 0
561, 4, T_Scon, T_Scon_DRRR, 388.3, hit, 2, 0
562, 4, T_Sinc, T_Sinc_URRR, 523.6, hit, 2, 0
563, 4, T_Sinc, T_Sinc_DGLG, 559.0, hit, 1, 0
564, 4, T_Sinc, T_Sinc_DGLG, 426.5, hit, 1, 0
565, 4, T_Scon, T_Scon_DRRR, 526.0, hit, 2, 0
566, 4, T_Scon, T_Scon_UGLG, 545.4, hit, 1, 0
567, 4, T_Sinc, T_Sinc_DGLG, 1092.8, hit, 1, 2
568, 4, T_Sinc, T_Sinc_URRR, 444.3, hit, 2, 0
569, 4, T_Scon, T_Scon_DRRR, 307.8, hit, 2, 0
570, 4, T_Scon, T_Scon_DRRR, 535.1, hit, 2, 0
571, 4, T_Sinc, T_Sinc_URRR, 494.6, hit, 2, 0
572, 4, T_Scon, T_Scon_UGLG, 350.1, hit, 1, 0
573, 4, T_Scon, T_Scon_UGLG, 361.4, hit, 1, 0
574, 4, T_Scon, T_Scon_UGLG, 372.9, hit, 1, 0
575, 4, T_Sinc, T_Sinc_URRR, 356.3, hit, 2, 0
576, 4, T_Sinc, T_Sinc_URRR, 407.8, hit, 2, 0
577, 5, T_Sinc, T_Sinc_DGLG, 389.4, hit, 1, 0
578, 5, T_Sinc, T_Sinc_URRR, 368.9, hit, 2, 0
579, 5, T_Scon, T_Scon_DRRR, 340.4, hit, 2, 0
580, 5, T_Scon, T_Scon_DRRR, 359.7, hit, 2, 0
581, 5, T_Sinc, T_Sinc_URRR, 355.2, hit, 2, 0
582, 5, T_Scon, T_Scon_DRRR, 502.6, hit, 2, 0
583, 5, T_Sinc, T_Sinc_URRR, 434.1, hit, 2, 0
584, 5, T_Sinc, T_Sinc_URRR, 349.5, hit, 2, 0
585, 5, T_Sinc, T_Sinc_DGLG, 376.9, hit, 1, 0
586, 5, T_Sinc, T_Sinc_DGLG, 444.4, hit, 1, 0
587, 5, T_Scon, T_Scon_DRRR, 487.8, hit, 2, 0
588, 5, T_Scon, T_Scon_UGLG, 499.2, hit, 1, 0
589, 5, T_Scon, T_Scon_UGLG, 478.7, hit, 1, 0
590, 5, T_Scon, T_Scon_DRRR, 438.1, hit, 2, 0
591, 5, T_Sinc, T_Sinc_DGLG, 529.5, hit, 1, 0
592, 5, T_Sinc, T_Sinc_DGLG, 769.0, hit, 1, 2
593, 5, T_Sinc, T_Sinc_URRR, 400.4, hit, 2, 0
594, 5, T_Sinc, T_Sinc_URRR, 339.9, hit, 2, 0
595, 5, T_Sinc, T_Sinc_DGLG, 391.3, hit, 1, 0
596, 5, T_Sinc, T_Sinc_URRR, 374.7, hit, 2, 0
597, 5, T_Sinc, T_Sinc_URRR, 390.2, hit, 2, 0
598, 5, T_Sinc, T_Sinc_URRR, 265.5, hit, 2, 0
599, 5, T_Sinc, T_Sinc_URRR, 357.0, hit, 2, 0
600, 5, T_Sinc, T_Sinc_URRR, 300.5, hit, 2, 0
601, 5, T_Scon, T_Scon_UGLG, 431.9, hit, 1, 0
602, 5, T_Scon, T_Scon_UGLG, 311.3, hit, 1, 0
603, 5, T_Scon, T_Scon_DRRR, 354.8, hit, 2, 0
604, 5, T_Sinc, T_Sinc_URRR, 390.2, hit, 2, 0
605, 5, T_Scon, T_Scon_UGLG, 405.7, hit, 1, 0
606, 5, T_Scon, T_Scon_DRRR, 433.1, hit, 2, 0
607, 5, T_Sinc, T_Sinc_URRR, 452.6, hit, 2, 0
608, 5, T_Sinc, T_Sinc_DGLG, 372.0, hit, 1, 0
609, 5, T_Sinc, T_Sinc_URRR, 327.4, hit, 2, 0
610, 5, T_Scon, T_Scon_DRRR, 362.8, hit, 2, 0
611, 5, T_Sinc, T_Sinc_URRR, 350.3, hit, 2, 0
612, 5, T_Scon, T_Scon_UGLG, 469.8, hit, 1, 0
613, 5, T_Scon, T_Scon_DRRR, 460.9, hit, 2, 0
614, 5, T_Sinc, T_Sinc_URRR, 360.3, hit, 2, 0
615, 5, T_Scon, T_Scon_UGLG, 451.7, hit, 1, 0
616, 5, T_Scon, T_Scon_UGLG, 423.1, hit, 1, 0
617, 5, T_Sinc, T_Sinc_URRR, 362.6, hit, 2, 0
618, 5, T_Scon, T_Scon_UGLG, 466.1, hit, 1, 0
619, 5, T_Sinc, T_Sinc_DGLG, 365.5, incorrect, 2, 1
620, 5, T_Sinc, T_Sinc_DGLG, 396.9, hit, 1, 0
621, 5, T_Scon, T_Scon_DRRR, 428.4, hit, 2, 0
622, 5, T_Scon, T_Scon_DRRR, 343.8, hit, 2, 0
623, 5, T_Scon, T_Scon_DRRR, 335.2, hit, 2, 0
624, 5, T_Scon, T_Scon_UGLG, 402.7, hit, 1, 0
625, 5, T_Scon, T_Scon_DRRR, 478.1, hit, 2, 0
626, 5, T_Sinc, T_Sinc_URRR, 365.6, hit, 2, 0
627, 5, T_Sinc, T_Sinc_DGLG, 393.0, hit, 1, 0
628, 5, T_Sinc, T_Sinc_URRR, 344.4, incorrect, 1, 1
629, 5, T_Scon, T_Scon_UGLG, 439.9, hit, 1, 0
630, 5, T_Sinc, T_Sinc_DGLG, 451.2, hit, 1, 0
631, 5, T_Scon, T_Scon_UGLG, 534.7, hit, 1, 0
632, 5, T_Sinc, T_Sinc_DGLG, 422.2, hit, 1, 0
633, 5, T_Sinc, T_Sinc_DGLG, 373.6, hit, 1, 0
634, 5, T_Sinc, T_Sinc_DGLG, 365.0, hit, 1, 0
635, 5, T_Scon, T_Scon_DRRR, 428.5, hit, 2, 0
636, 5, T_Sinc, T_Sinc_URRR, 319.9, hit, 2, 0
637, 5, T_Sinc, T_Sinc_DGLG, 631.4, hit, 1, 0
638, 5, T_Scon, T_Scon_DRRR, 562.8, hit, 2, 0
639, 5, T_Scon, T_Scon_DRRR, 378.2, hit, 2, 0
640, 5, T_Scon, T_Scon_DRRR, 321.7, hit, 2, 0
641, 5, T_Sinc, T_Sinc_DGLG, 445.1, hit, 1, 0
642, 5, T_Sinc, T_Sinc_DGLG, 520.5, hit, 1, 0
643, 5, T_Scon, T_Scon_UGLG, 464.0, hit, 1, 0
644, 5, T_Sinc, T_Sinc_DGLG, 335.4, hit, 1, 0
645, 5, T_Scon, T_Scon_UGLG, 362.9, hit, 1, 0
646, 5, T_Scon, T_Scon_DRRR, 410.3, hit, 2, 0
647, 5, T_Sinc, T_Sinc_DGLG, 469.7, hit, 1, 0
648, 5, T_Sinc, T_Sinc_DGLG, 269.2, hit, 1, 0
649, 5, T_Sinc, T_Sinc_URRR, 460.3, hit, 2, 0
650, 5, T_Sinc, T_Sinc_URRR, 291.8, hit, 2, 0
651, 5, T_Sinc, T_Sinc_DGLG, 467.2, hit, 1, 0
652, 5, T_Sinc, T_Sinc_DGLG, 362.6, hit, 1, 0
653, 5, T_Scon, T_Scon_UGLG, 422.1, hit, 1, 0
654, 5, T_Sinc, T_Sinc_URRR, 481.5, hit, 2, 0
655, 5, T_Scon, T_Scon_DRRR, 372.9, hit, 2, 0
656, 5, T_Scon, T_Scon_DRRR, 416.4, hit, 2, 0
657, 5, T_Sinc, T_Sinc_URRR, 307.8, hit, 2, 0
658, 5, T_Scon, T_Scon_UGLG, 363.2, hit, 1, 0
659, 5, T_Sinc, T_Sinc_DGLG, 454.6, hit, 1, 0
660, 5, T_Scon, T_Scon_UGLG, 342.1, hit, 1, 0
661, 5, T_Scon, T_Scon_DRRR, 401.6, hit, 2, 0
662, 5, T_Scon, T_Scon_DRRR, 340.9, hit, 2, 0
663, 5, T_Sinc, T_Sinc_DGLG, 400.4, hit, 1, 0
664, 5, T_Sinc, T_Sinc_DGLG, 371.9, hit, 1, 0
665, 5, T_Sinc, T_Sinc_URRR, 523.2, hit, 2, 0
666, 5, T_Scon, T_Scon_DRRR, 446.7, hit, 2, 0
667, 5, T_Sinc, T_Sinc_URRR, 362.1, hit, 2, 0
668, 5, T_Sinc, T_Sinc_DGLG, 429.6, hit, 1, 0
669, 5, T_Scon, T_Scon_UGLG, 481.0, hit, 1, 0
670, 5, T_Sinc, T_Sinc_URRR, 712.4, hit, 2, 0
671, 5, T_Sinc, T_Sinc_URRR, 319.9, hit, 2, 0
672, 5, T_Sinc, T_Sinc_URRR, 291.4, hit, 2, 0
673, 5, T_Scon, T_Scon_UGLG, 506.7, hit, 1, 0
674, 5, T_Scon, T_Scon_UGLG, 330.2, hit, 1, 0
675, 5, T_Scon, T_Scon_DRRR, 369.7, hit, 2, 0
676, 5, T_Scon, T_Scon_DRRR, 293.0, hit, 2, 0
677, 5, T_Sinc, T_Sinc_DGLG, 344.5, hit, 1, 0
678, 5, T_Sinc, T_Sinc_DGLG, 396.0, hit, 1, 0
679, 5, T_Scon, T_Scon_DRRR, 311.3, hit, 2, 0
680, 5, T_Sinc, T_Sinc_DGLG, 398.8, hit, 1, 0
681, 5, T_Sinc, T_Sinc_DGLG, 338.3, hit, 1, 0
682, 5, T_Scon, T_Scon_UGLG, 501.7, hit, 1, 0
683, 5, T_Sinc, T_Sinc_URRR, 385.1, hit, 2, 0
684, 5, T_Scon, T_Scon_UGLG, 340.6, hit, 1, 0
685, 5, T_Scon, T_Scon_UGLG, 563.7, hit, 1, 0
686, 5, T_Sinc, T_Sinc_URRR, 323.1, hit, 2, 0
687, 5, T_Scon, T_Scon_UGLG, 318.6, hit, 1, 0
688, 5, T_Scon, T_Scon_DRRR, 358.1, hit, 2, 0
689, 5, T_Scon, T_Scon_DRRR, 341.4, hit, 2, 0
690, 5, T_Sinc, T_Sinc_DGLG, 304.9, hit, 1, 0
691, 5, T_Scon, T_Scon_DRRR, 340.4, hit, 2, 0
692, 5, T_Scon, T_Scon_UGLG, 319.7, hit, 1, 0
693, 5, T_Sinc, T_Sinc_URRR, 251.2, hit, 2, 0
694, 5, T_Sinc, T_Sinc_DGLG, 370.7, hit, 1, 0
695, 5, T_Scon, T_Scon_UGLG, 398.1, hit, 1, 0
696, 5, T_Scon, T_Scon_DRRR, 337.6, hit, 2, 0
697, 5, T_Scon, T_Scon_DRRR, 388.9, hit, 2, 0
698, 5, T_Scon, T_Scon_UGLG, 336.4, hit, 1, 0
699, 5, T_Sinc, T_Sinc_DGLG, 467.9, hit, 1, 0
700, 5, T_Scon, T_Scon_UGLG, 327.2, hit, 1, 0
701, 5, T_Scon, T_Scon_UGLG, 306.7, hit, 1, 0
702, 5, T_Scon, T_Scon_DRRR, 422.2, hit, 2, 0
703, 5, T_Sinc, T_Sinc_URRR, 329.6, hit, 2, 0
704, 5, T_Scon, T_Scon_UGLG, 665.0, hit, 1, 0
705, 5, T_Sinc, T_Sinc_DGLG, 444.5, hit, 1, 0
706, 5, T_Scon, T_Scon_UGLG, 319.9, hit, 1, 0
707, 5, T_Scon, T_Scon_UGLG, 331.3, hit, 1, 0
708, 5, T_Scon, T_Scon_DRRR, 462.8, hit, 2, 0
709, 5, T_Scon, T_Scon_DRRR, 418.2, hit, 2, 0
710, 5, T_Scon, T_Scon_DRRR, 465.7, hit, 2, 0
711, 5, T_Scon, T_Scon_UGLG, 449.0, hit, 1, 0
712, 5, T_Scon, T_Scon_UGLG, 280.5, hit, 1, 0
713, 5, T_Sinc, T_Sinc_DGLG, 516.0, hit, 1, 0
714, 5, T_Sinc, T_Sinc_URRR, 399.3, hit, 2, 0
715, 5, T_Sinc, T_Sinc_DGLG, 458.8, hit, 1, 0
716, 5, T_Scon, T_Scon_UGLG, 606.3, hit, 1, 0
717, 5, T_Scon, T_Scon_DRRR, 329.7, hit, 2, 0
718, 5, T_Sinc, T_Sinc_URRR, 445.1, hit, 2, 0
719, 5, T_Sinc, T_Sinc_URRR, 352.6, hit, 2, 0
720, 5, T_Scon, T_Scon_UGLG, 436.0, hit, 1, 0
721, 6, T_Sinc, T_Sinc_DGLG, 390.0, hit, 1, 0
722, 6, T_Sinc, T_Sinc_DGLG, 401.4, hit, 1, 0
723, 6, T_Sinc, T_Sinc_URRR, 428.9, hit, 2, 0
724, 6, T_Sinc, T_Sinc_DGLG, 372.4, hit, 1, 0
725, 6, T_Scon, T_Scon_UGLG, 375.7, hit, 1, 0
726, 6, T_Scon, T_Scon_UGLG, 387.2, hit, 1, 0
727, 6, T_Scon, T_Scon_UGLG, 366.7, hit, 1, 0
728, 6, T_Sinc, T_Sinc_URRR, 362.0, hit, 2, 0
729, 6, T_Scon, T_Scon_DRRR, 389.5, hit, 2, 0
730, 6, T_Sinc, T_Sinc_URRR, 448.9, hit, 2, 0
731, 6, T_Sinc, T_Sinc_DGLG, 436.4, hit, 1, 0
732, 6, T_Sinc, T_Sinc_URRR, 419.8, hit, 2, 0
733, 6, T_Sinc, T_Sinc_DGLG, 547.2, hit, 1, 0
734, 6, T_Sinc, T_Sinc_URRR, 546.7, hit, 2, 0
735, 6, T_Sinc, T_Sinc_DGLG, 350.1, hit, 1, 0
736, 6, T_Sinc, T_Sinc_URRR, 349.5, hit, 2, 0
737, 6, T_Sinc, T_Sinc_DGLG, 373.0, hit, 1, 0
738, 6, T_Scon, T_Scon_DRRR, 548.4, hit, 2, 0
739, 6, T_Sinc, T_Sinc_URRR, 415.8, hit, 2, 0
740, 6, T_Sinc, T_Sinc_URRR, 347.3, hit, 2, 0
741, 6, T_Scon, T_Scon_DRRR, 382.8, hit, 2, 0
742, 6, T_Scon, T_Scon_DRRR, 354.2, hit, 2, 0
743, 6, T_Scon, T_Scon_DRRR, 429.6, hit, 2, 0
744, 6, T_Sinc, T_Sinc_URRR, 333.1, hit, 2, 0
745, 6, T_Scon, T_Scon_DRRR, 332.5, hit, 2, 0
746, 6, T_Scon, T_Scon_UGLG, 379.9, hit, 1, 0
747, 6, T_Sinc, T_Sinc_URRR, 491.4, hit, 2, 0
748, 6, T_Sinc, T_Sinc_URRR, 574.8, hit, 2, 0
749, 6, T_Scon, T_Scon_UGLG, 354.3, hit, 1, 0
750, 6, T_Scon, T_Scon_UGLG, 529.6, hit, 1, 0
751, 6, T_Scon, T_Scon_UGLG, 345.1, hit, 1, 0
752, 6, T_Scon, T_Scon_UGLG, 356.6, hit, 1, 0
753, 6, T_Sinc, T_Sinc_DGLG, 448.0, hit, 1, 0
754, 6, T_Scon, T_Scon_DRRR, 383.4, hit, 2, 0
755, 6, T_Sinc, T_Sinc_DGLG, 378.9, hit, 1, 0
756, 6, T_Scon, T_Scon_DRRR, 502.3, hit, 2, 0
757, 6, T_Scon, T_Scon_DRRR, 525.5, hit, 2, 0
758, 6, T_Sinc, T_Sinc_DGLG, 392.9, hit, 1, 0
759, 6, T_Sinc, T_Sinc_URRR, 360.3, incorrect, 1, 1
760, 6, T_Sinc, T_Sinc_DGLG, 455.7, hit, 1, 0
761, 6, T_Scon, T_Scon_DRRR, 467.2, hit, 2, 0
762, 6, T_Scon, T_Scon_UGLG, 398.6, hit, 1, 0
763, 6, T_Scon, T_Scon_UGLG, 330.0, hit, 1, 0
764, 6, T_Sinc, T_Sinc_DGLG, 373.5, incorrect, 2, 1
765, 6, T_Scon, T_Scon_DRRR, 584.9, hit, 2, 0
766, 6, T_Sinc, T_Sinc_DGLG, 360.3, hit, 1, 0
767, 6, T_Sinc, T_Sinc_DGLG, 363.8, hit, 1, 0
768, 6, T_Sinc, T_Sinc_DGLG, 419.2, hit, 1, 0
769, 6, T_Scon, T_Scon_DRRR, 318.7, hit, 2, 0
770, 6, T_Scon, T_Scon_UGLG, 434.0, hit, 1, 0
771, 6, T_Sinc, T_Sinc_URRR, 437.5, hit, 2, 0
772, 6, T_Sinc, T_Sinc_URRR, 329.0, hit, 2, 0
773, 6, T_Sinc, T_Sinc_DGLG, 380.5, hit, 1, 0
774, 6, T_Scon, T_Scon_UGLG, 411.8, hit, 1, 0
775, 6, T_Scon, T_Scon_UGLG, 423.3, hit, 1, 0
776, 6, T_Scon, T_Scon_DRRR, 342.7, hit, 2, 0
777, 6, T_Scon, T_Scon_DRRR, 866.2, hit, 2, 2
778, 6, T_Scon, T_Scon_DRRR, 509.6, hit, 2, 0
779, 6, T_Scon, T_Scon_UGLG, 425.0, hit, 1, 0
780, 6, T_Scon, T_Scon_DRRR, 400.5, hit, 2, 0
781, 6, T_Scon, T_Scon_DRRR, 347.9, hit, 2, 0
782, 6, T_Sinc, T_Sinc_URRR, 367.3, incorrect, 1, 1
783, 6, T_Sinc, T_Sinc_URRR, 378.8, hit, 2, 0
784, 6, T_Scon, T_Scon_UGLG, 566.3, hit, 1, 0
785, 6, T_Sinc, T_Sinc_DGLG, 633.6, hit, 1, 0
786, 6, T_Sinc, T_Sinc_URRR, 365.1, hit, 2, 0
787, 6, T_Scon, T_Scon_UGLG, 408.6, hit, 1, 0
788, 6, T_Sinc, T_Sinc_URRR, 752.0, hit, 2, 2
789, 6, T_Sinc, T_Sinc_URRR, 379.4, hit, 2, 0
790, 6, T_Sinc, T_Sinc_URRR, 334.8, hit, 2, 0
791, 6, T_Sinc, T_Sinc_DGLG, 422.3, hit, 1, 0
792, 6, T_Scon, T_Scon_UGLG, 469.7, hit, 1, 0
793, 6, T_Sinc, T_Sinc_DGLG, 496.9, hit, 1, 0
794, 6, T_Scon, T_Scon_DRRR, 388.2, hit, 2, 0
795, 6, T_Sinc, T_Sinc_DGLG, 563.7, hit, 1, 0
796, 6, T_Scon, T_Scon_UGLG, 363.2, hit, 1, 0
797, 6, T_Scon, T_Scon_UGLG, 330.6, hit, 1, 0
798, 6, T_Scon, T_Scon_DRRR, 446.0, hit, 2, 0
799, 6, T_Scon, T_Scon_UGLG, 465.5, hit, 1, 0
800, 6, T_Sinc, T_Sinc_DGLG, 492.9, hit, 1, 0
801, 6, T_Scon, T_Scon_DRRR, 456.3, hit, 2, 0
802, 6, T_Scon, T_Scon_UGLG, 395.8, hit, 1, 0
803, 6, T_Sinc, T_Sinc_URRR, 363.2, hit, 2, 0
804, 6, T_Scon, T_Scon_DRRR, 406.6, hit, 2, 0
805, 6, T_Scon, T_Scon_DRRR, 342.0, hit, 2, 0
806, 6, T_Sinc, T_Sinc_URRR, 537.5, hit, 2, 0
807, 6, T_Sinc, T_Sinc_DGLG, 509.0, hit, 1, 0
808, 6, T_Scon, T_Scon_DRRR, 396.4, hit, 2, 0
809, 6, T_Sinc, T_Sinc_URRR, 351.8, hit, 2, 0
810, 6, T_Scon, T_Scon_DRRR, 419.3, hit, 2, 0
811, 6, T_Scon, T_Scon_UGLG, 398.7, hit, 1, 0
812, 6, T_Sinc, T_Sinc_URRR, 514.2, hit, 2, 0
813, 6, T_Sinc, T_Sinc_URRR, 521.5, hit, 2, 0
814, 6, T_Sinc, T_Sinc_DGLG, 489.0, hit, 1, 0
815, 6, T_Scon, T_Scon_DRRR, 532.5, hit, 2, 0
816, 6, T_Sinc, T_Sinc_DGLG, 575.9, hit, 1, 0
817, 6, T_Scon, T_Scon_UGLG, 383.3, hit, 1, 0
818, 6, T_Scon, T_Scon_DRRR, 410.8, hit, 2, 0
819, 6, T_Sinc, T_Sinc_URRR, 374.2, hit, 2, 0
820, 6, T_Scon, T_Scon_UGLG, 409.6, hit, 1, 0
821, 6, T_Scon, T_Scon_UGLG, 413.1, hit, 1, 0
822, 6, T_Sinc, T_Sinc_URRR, 416.5, hit, 2, 0
823, 6, T_Scon, T_Scon_DRRR, 379.9, hit, 2, 0
824, 6, T_Scon, T_Scon_UGLG, 439.4, hit, 1, 0
825, 6, T_Scon, T_Scon_UGLG, 414.8, hit, 1, 0
826, 6, T_Scon, T_Scon_DRRR, 458.3, hit, 2, 0
827, 6, T_Sinc, T_Sinc_DGLG, 669.7, hit, 1, 0
828, 6, T_Scon, T_Scon_UGLG, 465.1, hit, 1, 0
829, 6, T_Scon, T_Scon_DRRR, 384.3, hit, 2, 0
830, 6, T_Sinc, T_Sinc_DGLG, 379.7, hit, 1, 0
831, 6, T_Sinc, T_Sinc_DGLG, 671.2, hit, 1, 0
832, 6, T_Sinc, T_Sinc_URRR, 338.6, hit, 2, 0
833, 6, T_Scon, T_Scon_DRRR, 354.1, hit, 2, 0
834, 6, T_Scon, T_Scon_DRRR, 369.4, hit, 2, 0
835, 6, T_Scon, T_Scon_DRRR, 392.9, hit, 2, 0
836, 6, T_Sinc, T_Sinc_DGLG, 388.4, hit, 1, 0
837, 6, T_Sinc, T_Sinc_URRR, 467.8, hit, 2, 0
838, 6, T_Sinc, T_Sinc_URRR, 407.2, hit, 2, 0
839, 6, T_Scon, T_Scon_DRRR, 474.7, hit, 2, 0
840, 6, T_Sinc, T_Sinc_URRR, 394.1, hit, 2, 0
841, 6, T_Scon, T_Scon_UGLG, 489.5, hit, 1, 0
842, 6, T_Sinc, T_Sinc_DGLG, 541.0, hit, 1, 0
843, 6, T_Scon, T_Scon_UGLG, 456.4, hit, 1, 0
844, 6, T_Sinc, T_Sinc_DGLG, 451.9, hit, 1, 0
845, 6, T_Sinc, T_Sinc_DGLG, 495.2, hit, 1, 0
846, 6, T_Scon, T_Scon_DRRR, 566.7, hit, 2, 0
847, 6, T_Sinc, T_Sinc_URRR, 598.2, hit, 2, 0
848, 6, T_Scon, T_Scon_DRRR, 393.5, hit, 2, 0
849, 6, T_Scon, T_Scon_UGLG, 621.0, hit, 1, 0
850, 6, T_Scon, T_Scon_DRRR, 400.4, hit, 2, 0
851, 6, T_Sinc, T_Sinc_DGLG, 539.9, hit, 1, 0
852, 6, T_Scon, T_Scon_UGLG, 603.3, hit, 1, 0
853, 6, T_Sinc, T_Sinc_URRR, 762.8, hit, 2, 2
854, 6, T_Sinc, T_Sinc_DGLG, 542.2, hit, 1, 0
855, 6, T_Sinc, T_Sinc_DGLG, 481.7, hit, 1, 0
856, 6, T_Scon, T_Scon_UGLG, 445.1, hit, 1, 0
857, 6, T_Sinc, T_Sinc_DGLG, 368.5, hit, 1, 0
858, 6, T_Sinc, T_Sinc_URRR, 604.0, hit, 2, 0
859, 6, T_Sinc, T_Sinc_DGLG, 431.4, hit, 1, 0
860, 6, T_Scon, T_Scon_UGLG, 434.8, hit, 1, 0
861, 6, T_Sinc, T_Sinc_URRR, 498.3, hit, 2, 0
862, 6, T_Scon, T_Scon_UGLG, 409.7, hit, 1, 0
863, 6, T_Scon, T_Scon_UGLG, 541.1, hit, 1, 0
864, 6, T_Sinc, T_Sinc_URRR, 568.5, hit, 2, 0
865, 7, T_Sinc, T_Sinc_URRR, 441.9, hit, 2, 0
866, 7, T_Scon, T_Scon_DRRR, 397.3, hit, 2, 0
867, 7, T_Sinc, T_Sinc_URRR, 324.8, hit, 2, 0
868, 7, T_Sinc, T_Sinc_DGLG, 376.2, hit, 1, 0
869, 7, T_Sinc, T_Sinc_DGLG, 355.6, hit, 1, 0
870, 7, T_Sinc, T_Sinc_URRR, 375.1, hit, 2, 0
871, 7, T_Sinc, T_Sinc_DGLG, 414.5, hit, 1, 0
872, 7, T_Scon, T_Scon_DRRR, 674.0, hit, 2, 0
873, 7, T_Sinc, T_Sinc_URRR, 349.4, hit, 2, 0
874, 7, T_Sinc, T_Sinc_DGLG, 436.8, hit, 1, 0
875, 7, T_Scon, T_Scon_UGLG, 356.4, hit, 1, 0
876, 7, T_Scon, T_Scon_UGLG, 415.7, hit, 1, 0
877, 7, T_Scon, T_Scon_DRRR, 531.2, hit, 2, 0
878, 7, T_Sinc, T_Sinc_URRR, 862.6, hit, 2, 2
879, 7, T_Scon, T_Scon_DRRR, 458.1, hit, 2, 0
880, 7, T_Scon, T_Scon_UGLG, 553.5, hit, 1, 0
881, 7, T_Sinc, T_Sinc_URRR, 816.9, hit, 2, 2
882, 7, T_Scon, T_Scon_DRRR, 428.3, hit, 2, 0
883, 7, T_Scon, T_Scon_DRRR, 399.8, hit, 2, 0
884, 7, T_Scon, T_Scon_UGLG, 491.3, hit, 1, 0
885, 7, T_Scon, T_Scon_DRRR, 370.6, hit, 2, 0
886, 7, T_Sinc, T_Sinc_URRR, 798.1, hit, 2, 2
887, 7, T_Sinc, T_Sinc_URRR, 557.6, hit, 2, 0
888, 7, T_Sinc, T_Sinc_DGLG, 437.0, hit, 1, 0
889, 7, T_Scon, T_Scon_DRRR, 536.4, hit, 2, 0
890, 7, T_Scon, T_Scon_UGLG, 455.9, hit, 1, 0
891, 7, T_Scon, T_Scon_DRRR, 391.3, hit, 2, 0
892, 7, T_Sinc, T_Sinc_DGLG, 450.8, hit, 1, 0
893, 7, T_Sinc, T_Sinc_DGLG, 626.2, hit, 1, 0
894, 7, T_Scon, T_Scon_UGLG, 501.6, hit, 1, 0
895, 7, T_Scon, T_Scon_UGLG, 425.1, hit, 1, 0
896, 7, T_Sinc, T_Sinc_URRR, 596.5, hit, 2, 0
897, 7, T_Scon, T_Scon_UGLG, 447.9, hit, 1, 0
898, 7, T_Scon, T_Scon_DRRR, 515.3, hit, 2, 0
899, 7, T_Scon, T_Scon_UGLG, 370.8, hit, 1, 0
900, 7, T_Scon, T_Scon_UGLG, 406.3, hit, 1, 0
901, 7, T_Sinc, T_Sinc_DGLG, 469.4, hit, 1, 0
902, 7, T_Scon, T_Scon_UGLG, 360.9, hit, 1, 0
903, 7, T_Sinc, T_Sinc_URRR, 368.2, hit, 2, 0
904, 7, T_Sinc, T_Sinc_URRR, 311.7, hit, 2, 0
905, 7, T_Scon, T_Scon_UGLG, 371.1, hit, 1, 0
906, 7, T_Scon, T_Scon_DRRR, 450.6, hit, 2, 0
907, 7, T_Sinc, T_Sinc_DGLG, 422.0, hit, 1, 0
908, 7, T_Scon, T_Scon_DRRR, 421.4, hit, 2, 0
909, 7, T_Sinc, T_Sinc_DGLG, 436.9, hit, 1, 0
910, 7, T_Scon, T_Scon_DRRR, 428.3, hit, 2, 0
911, 7, T_Scon, T_Scon_UGLG, 367.8, hit, 1, 0
912, 7, T_Sinc, T_Sinc_URRR, 523.2, hit, 2, 0
913, 7, T_Sinc, T_Sinc_URRR, 374.7, incorrect, 1, 1
914, 7, T_Sinc, T_Sinc_URRR, 394.1, hit, 2, 0
915, 7, T_Sinc, T_Sinc_DGLG, 393.5, hit, 1, 0
916, 7, T_Sinc, T_Sinc_URRR, 389.0, hit, 2, 0
917, 7, T_Sinc, T_Sinc_DGLG, 420.4, hit, 1, 0
918, 7, T_Sinc, T_Sinc_DGLG, 527.8, hit, 1, 0
919, 7, T_Scon, T_Scon_UGLG, 499.2, hit, 1, 0
920, 7, T_Sinc, T_Sinc_URRR, 382.7, hit, 2, 0
921, 7, T_Sinc, T_Sinc_DGLG, 474.1, hit, 1, 0
922, 7, T_Sinc, T_Sinc_URRR, 497.5, hit, 2, 0
923, 7, T_Scon, T_Scon_DRRR, 549.0, hit, 2, 0
924, 7, T_Sinc, T_Sinc_DGLG, 376.5, hit, 1, 0
925, 7, T_Sinc, T_Sinc_DGLG, 419.8, hit, 1, 0
926, 7, T_Scon, T_Scon_DRRR, 523.3, hit, 2, 0
927, 7, T_Sinc, T_Sinc_DGLG, 454.8, hit, 1, 0
928, 7, T_Scon, T_Scon_DRRR, 430.1, hit, 2, 0
929, 7, T_Scon, T_Scon_DRRR, 353.6, hit, 2, 0
930, 7, T_Sinc, T_Sinc_URRR, 349.1, hit, 2, 0
931, 7, T_Scon, T_Scon_DRRR, 360.4, hit, 2, 0
932, 7, T_Scon, T_Scon_UGLG, 379.9, hit, 1, 0
933, 7, T_Scon, T_Scon_UGLG, 383.4, hit, 1, 0
934, 7, T_Sinc, T_Sinc_DGLG, 566.8, hit, 1, 0
935, 7, T_Scon, T_Scon_UGLG, 386.2, hit, 1, 0
936, 7, T_Scon, T_Scon_UGLG, 365.7, hit, 1, 0
937, 7, T_Scon, T_Scon_UGLG, 396.8, hit, 1, 0
938, 7, T_Scon, T_Scon_DRRR, 368.2, hit, 2, 0
939, 7, T_Sinc, T_Sinc_DGLG, 407.7, hit, 1, 0
940, 7, T_Scon, T_Scon_UGLG, 419.2, hit, 1, 0
941, 7, T_Scon, T_Scon_UGLG, 406.5, hit, 1, 0
942, 7, T_Scon, T_Scon_UGLG, 378.0, hit, 1, 0
943, 7, T_Scon, T_Scon_DRRR, 593.4, hit, 2, 0
944, 7, T_Scon, T_Scon_DRRR, 876.9, hit, 2, 2
945, 7, T_Scon, T_Scon_UGLG, 324.3, hit, 1, 0
946, 7, T_Scon, T_Scon_UGLG, 399.7, hit, 1, 0
947, 7, T_Scon, T_Scon_UGLG, 351.2, hit, 1, 0
948, 7, T_Scon, T_Scon_DRRR, 390.7, hit, 2, 0
949, 7, T_Scon, T_Scon_DRRR, 398.0, hit, 2, 0
950, 7, T_Sinc, T_Sinc_URRR, 457.5, hit, 2, 0
951, 7, T_Sinc, T_Sinc_DGLG, 457.0, hit, 1, 0
952, 7, T_Sinc, T_Sinc_DGLG, 412.3, hit, 1, 0
953, 7, T_Sinc, T_Sinc_URRR, 367.8, hit, 2, 0
954, 7, T_Scon, T_Scon_UGLG, 551.2, hit, 1, 0
955, 7, T_Scon, T_Scon_UGLG, 378.6, hit, 1, 0
956, 7, T_Scon, T_Scon_DRRR, 342.1, hit, 2, 0
957, 7, T_Sinc, T_Sinc_URRR, 345.5, hit, 2, 0
958, 7, T_Scon, T_Scon_DRRR, 437.0, hit, 2, 0
959, 7, T_Scon, T_Scon_DRRR, 336.4, hit, 2, 0
960, 7, T_Sinc, T_Sinc_DGLG, 411.8, hit, 1, 0
961, 7, T_Scon, T_Scon_DRRR, 423.3, hit, 2, 0
962, 7, T_Scon, T_Scon_DRRR, 346.7, hit, 2, 0
963, 7, T_Sinc, T_Sinc_URRR, 350.1, hit, 2, 0
964, 7, T_Sinc, T_Sinc_DGLG, 381.6, hit, 1, 0
965, 7, T_Scon, T_Scon_DRRR, 457.0, hit, 2, 0
966, 7, T_Scon, T_Scon_DRRR, 264.4, hit, 2, 0
967, 7, T_Sinc, T_Sinc_URRR, 311.9, hit, 2, 0
968, 7, T_Sinc, T_Sinc_URRR, 371.4, hit, 2, 0
969, 7, T_Sinc, T_Sinc_DGLG, 410.7, hit, 1, 0
970, 7, T_Sinc, T_Sinc_DGLG, 454.2, hit, 1, 0
971, 7, T_Scon, T_Scon_DRRR, 401.7, hit, 2, 0
972, 7, T_Sinc, T_Sinc_DGLG, 401.0, hit, 1, 0
973, 7, T_Scon, T_Scon_DRRR, 392.2, hit, 2, 0
974, 7, T_Sinc, T_Sinc_URRR, 387.7, hit, 2, 0
975, 7, T_Scon, T_Scon_DRRR, 367.1, hit, 2, 0
976, 7, T_Scon, T_Scon_DRRR, 286.5, hit, 2, 0
977, 7, T_Sinc, T_Sinc_DGLG, 482.0, hit, 1, 0
978, 7, T_Scon, T_Scon_UGLG, 405.3, hit, 1, 0
979, 7, T_Sinc, T_Sinc_URRR, 356.8, hit, 2, 0
980, 7, T_Sinc, T_Sinc_URRR, 368.3, hit, 2, 0
981, 7, T_Sinc, T_Sinc_DGLG, 395.7, hit, 1, 0
982, 7, T_Scon, T_Scon_UGLG, 463.1, hit, 1, 0
983, 7, T_Sinc, T_Sinc_URRR, 578.5, hit, 2, 0
984, 7, T_Sinc, T_Sinc_URRR, 350.0, hit, 2, 0
985, 7, T_Sinc, T_Sinc_URRR, 353.4, hit, 2, 0
986, 7, T_Scon, T_Scon_UGLG, 504.9, hit, 1, 0
987, 7, T_Sinc, T_Sinc_DGLG, 884.3, hit, 1, 2
988, 7, T_Sinc, T_Sinc_DGLG, 391.8, hit, 1, 0
989, 7, T_Sinc, T_Sinc_DGLG, 403.1, hit, 1, 0
990, 7, T_Sinc, T_Sinc_DGLG, 334.6, hit, 1, 0
991, 7, T_Sinc, T_Sinc_DGLG, 366.1, hit, 1, 0
992, 7, T_Scon, T_Scon_UGLG, 553.5, hit, 1, 0
993, 7, T_Sinc, T_Sinc_URRR, 356.9, hit, 2, 0
994, 7, T_Sinc, T_Sinc_DGLG, 424.4, hit, 1, 0
995, 7, T_Scon, T_Scon_UGLG, 507.8, hit, 1, 0
996, 7, T_Scon, T_Scon_DRRR, 423.3, hit, 2, 0
997, 7, T_Scon, T_Scon_UGLG, 374.7, hit, 1, 0
998, 7, T_Sinc, T_Sinc_URRR, 394.1, hit, 2, 0
999, 7, T_Sinc, T_Sinc_URRR, 349.6, hit, 2, 0
1000, 7, T_Sinc, T_Sinc_URRR, 341.0, hit, 2, 0
1001, 7, T_Sinc, T_Sinc_DGLG, 424.4, hit, 1, 0
1002, 7, T_Sinc, T_Sinc_DGLG, 339.9, hit, 1, 0
1003, 7, T_Scon, T_Scon_DRRR, 443.2, hit, 2, 0
1004, 7, T_Sinc, T_Sinc_URRR, 326.7, hit, 2, 0
1005, 7, T_Scon, T_Scon_UGLG, 458.2, hit, 1, 0
1006, 7, T_Sinc, T_Sinc_URRR, 481.6, hit, 2, 0
1007, 7, T_Scon, T_Scon_UGLG, 441.0, hit, 1, 0
1008, 7, T_Scon, T_Scon_UGLG, 344.5, hit, 1, 0
1009, 8, T_Sinc, T_Sinc_DGLG, 384.6, hit, 1, 0
1010, 8, T_Sinc, T_Sinc_DGLG, 356.0, hit, 1, 0
1011, 8, T_Sinc, T_Sinc_URRR, 431.5, hit, 2, 0
1012, 8, T_Scon, T_Scon_DRRR, 370.9, hit, 2, 0
1013, 8, T_Sinc, T_Sinc_DGLG, 470.3, hit, 1, 0
1014, 8, T_Sinc, T_Sinc_DGLG, 361.8, hit, 1, 0
1015, 8, T_Sinc, T_Sinc_URRR, 589.2, hit, 2, 0
1016, 8, T_Sinc, T_Sinc_URRR, 420.6, hit, 2, 0
1017, 8, T_Sinc, T_Sinc_DGLG, 416.1, hit, 1, 0
1018, 8, T_Sinc, T_Sinc_URRR, 507.5, hit, 2, 0
1019, 8, T_Scon, T_Scon_UGLG, 527.0, hit, 1, 0
1020, 8, T_Sinc, T_Sinc_URRR, 342.4, hit, 2, 0
1021, 8, T_Sinc, T_Sinc_URRR, 365.8, hit, 2, 0
1022, 8, T_Sinc, T_Sinc_URRR, 361.3, hit, 2, 0
1023, 8, T_Scon, T_Scon_DRRR, 444.7, hit, 2, 0
1024, 8, T_Sinc, T_Sinc_URRR, 368.1, hit, 2, 0
1025, 8, T_Sinc, T_Sinc_URRR, 395.6, hit, 2, 0
1026, 8, T_Scon, T_Scon_UGLG, 423.0, hit, 1, 0
1027, 8, T_Scon, T_Scon_DRRR, 434.4, hit, 2, 0
1028, 8, T_Sinc, T_Sinc_URRR, 433.9, hit, 2, 0
1029, 8, T_Scon, T_Scon_DRRR, 481.3, hit, 2, 0
1030, 8, T_Scon, T_Scon_UGLG, 500.7, hit, 1, 0
1031, 8, T_Scon, T_Scon_DRRR, 368.2, hit, 2, 0
1032, 8, T_Scon, T_Scon_UGLG, 407.6, hit, 1, 0
1033, 8, T_Scon, T_Scon_DRRR, 351.1, hit, 2, 0
1034, 8, T_Scon, T_Scon_DRRR, 506.5, hit, 2, 0
1035, 8, T_Scon, T_Scon_UGLG, 417.9, hit, 1, 0
1036, 8, T_Sinc, T_Sinc_DGLG, 541.4, hit, 1, 0
1037, 8, T_Scon, T_Scon_UGLG, 412.9, hit, 1, 0
1038, 8, T_Sinc, T_Sinc_DGLG, 484.3, hit, 1, 0
1039, 8, T_Sinc, T_Sinc_URRR, 491.7, hit, 2, 0
1040, 8, T_Sinc, T_Sinc_URRR, 491.1, hit, 2, 0
1041, 8, T_Sinc, T_Sinc_URRR, 350.6, hit, 2, 0
1042, 8, T_Sinc, T_Sinc_URRR, 362.1, hit, 2, 0
1043, 8, T_Sinc, T_Sinc_DGLG, 377.4, hit, 1, 0
1044, 8, T_Sinc, T_Sinc_URRR, 424.9, hit, 2, 0
1045, 8, T_Scon, T_Scon_DRRR, 496.1, hit, 2, 0
1046, 8, T_Scon, T_Scon_DRRR, 419.5, hit, 2, 0
1047, 8, T_Scon, T_Scon_UGLG, 822.9, hit, 1, 2
1048, 8, T_Scon, T_Scon_UGLG, 454.4, hit, 1, 0
1049, 8, T_Scon, T_Scon_UGLG, 425.8, hit, 1, 0
1050, 8, T_Sinc, T_Sinc_DGLG, 797.2, hit, 1, 2
1051, 8, T_Sinc, T_Sinc_DGLG, 528.7, hit, 1, 0
1052, 8, T_Scon, T_Scon_UGLG, 612.1, hit, 1, 0
1053, 8, T_Scon, T_Scon_DRRR, 371.5, hit, 2, 0
1054, 8, T_Scon, T_Scon_UGLG, 483.0, hit, 1, 0
1055, 8, T_Scon, T_Scon_UGLG, 406.5, hit, 1, 0
1056, 8, T_Sinc, T_Sinc_DGLG, 529.8, hit, 1, 0
1057, 8, T_Sinc, T_Sinc_DGLG, 429.3, hit, 1, 0
1058, 8, T_Sinc, T_Sinc_DGLG, 488.8, hit, 1, 0
1059, 8, T_Scon, T_Scon_DRRR, 640.1, hit, 2, 0
1060, 8, T_Sinc, T_Sinc_DGLG, 499.6, hit, 1, 0
1061, 8, T_Sinc, T_Sinc_DGLG, 375.0, hit, 1, 0
1062, 8, T_Sinc, T_Sinc_URRR, 378.5, hit, 2, 0
1063, 8, T_Scon, T_Scon_DRRR, 461.9, hit, 2, 0
1064, 8, T_Scon, T_Scon_DRRR, 409.3, hit, 2, 0
1065, 8, T_Sinc, T_Sinc_DGLG, 348.8, hit, 1, 0
1066, 8, T_Scon, T_Scon_UGLG, 460.3, hit, 1, 0
1067, 8, T_Sinc, T_Sinc_URRR, 503.6, hit, 2, 0
1068, 8, T_Sinc, T_Sinc_DGLG, 427.1, hit, 1, 0
1069, 8, T_Scon, T_Scon_UGLG, 626.5, hit, 1, 0
1070, 8, T_Scon, T_Scon_UGLG, 442.0, hit, 1, 0
1071, 8, T_Scon, T_Scon_DRRR, 409.4, hit, 2, 0
1072, 8, T_Sinc, T_Sinc_URRR, 676.8, hit, 2, 0
1073, 8, T_Sinc, T_Sinc_URRR, 400.3, hit, 2, 0
1074, 8, T_Sinc, T_Sinc_URRR, 403.7, hit, 2, 0
1075, 8, T_Sinc, T_Sinc_DGLG, 387.1, hit, 1, 0
1076, 8, T_Sinc, T_Sinc_DGLG, 386.6, hit, 1, 0
1077, 8, T_Sinc, T_Sinc_URRR, 434.1, hit, 2, 0
1078, 8, T_Scon, T_Scon_DRRR, 465.4, hit, 2, 0
1079, 8, T_Sinc, T_Sinc_DGLG, 408.9, hit, 1, 0
1080, 8, T_Scon, T_Scon_UGLG, 412.4, hit, 1, 0
1081, 8, T_Scon, T_Scon_UGLG, 403.5, hit, 1, 0
1082, 8, T_Scon, T_Scon_UGLG, 350.9, hit, 1, 0
1083, 8, T_Scon, T_Scon_UGLG, 318.4, hit, 1, 0
1084, 8, T_Scon, T_Scon_DRRR, 481.7, hit, 2, 0
1085, 8, T_Scon, T_Scon_DRRR, 353.2, hit, 2, 0
1086, 8, T_Scon, T_Scon_UGLG, 396.7, hit, 1, 0
1087, 8, T_Scon, T_Scon_DRRR, 400.1, hit, 2, 0
1088, 8, T_Scon, T_Scon_UGLG, 363.5, hit, 1, 0
1089, 8, T_Sinc, T_Sinc_URRR, 482.9, hit, 2, 0
1090, 8, T_Sinc, T_Sinc_DGLG, 470.4, hit, 1, 0
1091, 8, T_Scon, T_Scon_DRRR, 505.8, hit, 2, 0
1092, 8, T_Scon, T_Scon_DRRR, 337.3, hit, 2, 0
1093, 8, T_Scon, T_Scon_DRRR, 372.7, hit, 2, 0
1094, 8, T_Scon, T_Scon_UGLG, 400.2, hit, 1, 0
1095, 8, T_Scon, T_Scon_DRRR, 363.6, hit, 2, 0
1096, 8, T_Scon, T_Scon_UGLG, 487.0, hit, 1, 0
1097, 8, T_Sinc, T_Sinc_URRR, 546.5, hit, 2, 0
1098, 8, T_Sinc, T_Sinc_URRR, 373.9, hit, 2, 0
1099, 8, T_Scon, T_Scon_DRRR, 389.3, hit, 2, 0
1100, 8, T_Sinc, T_Sinc_DGLG, 424.8, hit, 1, 0
1101, 8, T_Scon, T_Scon_DRRR, 788.1, hit, 2, 2
1102, 8, T_Sinc, T_Sinc_URRR, 471.6, hit, 2, 0
1103, 8, T_Scon, T_Scon_DRRR, 479.1, hit, 2, 0
1104, 8, T_Scon, T_Scon_UGLG, 438.5, hit, 1, 0
1105, 8, T_Sinc, T_Sinc_DGLG, 381.9, hit, 1, 0
1106, 8, T_Sinc, T_Sinc_DGLG, 345.4, hit, 1, 0
1107, 8, T_Scon, T_Scon_DRRR, 400.9, hit, 2, 0
1108, 8, T_Sinc, T_Sinc_URRR, 484.2, hit, 2, 0
1109, 8, T_Scon, T_Scon_UGLG, 351.7, hit, 1, 0
1110, 8, T_Sinc, T_Sinc_DGLG, 427.1, hit, 1, 0
1111, 8, T_Sinc, T_Sinc_DGLG, 334.6, hit, 1, 0
1112, 8, T_Sinc, T_Sinc_DGLG, 346.1, hit, 1, 0
1113, 8, T_Sinc, T_Sinc_URRR, 493.4, hit, 2, 0
1114, 8, T_Sinc, T_Sinc_DGLG, 424.9, hit, 1, 0
1115, 8, T_Scon, T_Scon_DRRR, 468.3, hit, 2, 0
1116, 8, T_Sinc, T_Sinc_DGLG, 387.7, hit, 1, 0
1117, 8, T_Sinc, T_Sinc_DGLG, 459.0, hit, 1, 0
1118, 8, T_Scon, T_Scon_DRRR, 426.4, hit, 2, 0
1119, 8, T_Sinc, T_Sinc_DGLG, 417.7, hit, 1, 0
1120, 8, T_Sinc, T_Sinc_URRR, 453.2, hit, 2, 0
1121, 8, T_Sinc, T_Sinc_DGLG, 392.7, hit, 1, 0
1122, 8, T_Sinc, T_Sinc_DGLG, 408.0, hit, 1, 0
1123, 8, T_Sinc, T_Sinc_URRR, 531.5, hit, 2, 0
1124, 8, T_Sinc, T_Sinc_URRR, 443.0, hit, 2, 0
1125, 8, T_Scon, T_Scon_UGLG, 378.3, hit, 1, 0
1126, 8, T_Scon, T_Scon_DRRR, 381.8, hit, 2, 0
1127, 8, T_Scon, T_Scon_UGLG, 393.3, hit, 1, 0
1128, 8, T_Sinc, T_Sinc_DGLG, 564.7, hit, 1, 0
1129, 8, T_Sinc, T_Sinc_DGLG, 396.1, hit, 1, 0
1130, 8, T_Scon, T_Scon_DRRR, 715.6, hit, 2, 0
1131, 8, T_Sinc, T_Sinc_URRR, 491.0, hit, 2, 0
1132, 8, T_Scon, T_Scon_DRRR, 462.5, hit, 2, 0
1133, 8, T_Scon, T_Scon_DRRR, 337.8, hit, 2, 0
1134, 8, T_Sinc, T_Sinc_URRR, 309.3, hit, 2, 0
1135, 8, T_Scon, T_Scon_UGLG, 400.8, hit, 1, 0
1136, 8, T_Scon, T_Scon_DRRR, 440.1, hit, 2, 0
1137, 8, T_Scon, T_Scon_UGLG, 347.6, hit, 1, 0
1138, 8, T_Scon, T_Scon_UGLG, 591.1, hit, 1, 0
1139, 8, T_Scon, T_Scon_DRRR, 562.5, hit, 2, 0
1140, 8, T_Scon, T_Scon_UGLG, 389.9, hit, 1, 0
1141, 8, T_Scon, T_Scon_UGLG, 433.4, hit, 1, 0
1142, 8, T_Sinc, T_Sinc_URRR, 636.8, hit, 2, 0
1143, 8, T_Scon, T_Scon_UGLG, 356.3, hit, 1, 0
1144, 8, T_Sinc, T_Sinc_URRR, 407.7, hit, 2, 0
1145, 8, T_Scon, T_Scon_DRRR, 419.2, hit, 2, 0
1146, 8, T_Sinc, T_Sinc_URRR, 490.6, hit, 2, 0
1147, 8, T_Sinc, T_Sinc_URRR, 374.0, hit, 2, 0
1148, 8, T_Scon, T_Scon_DRRR, 385.4, hit, 2, 0
1149, 8, T_Scon, T_Scon_UGLG, 428.9, hit, 1, 0
1150, 8, T_Sinc, T_Sinc_DGLG, 392.2, hit, 1, 0
1151, 8, T_Scon, T_Scon_UGLG, 451.7, hit, 1, 0
1152, 8, T_Scon, T_Scon_UGLG, 599.2, hit, 1, 0
1153, 9, T_Scon, T_Scon_UGLG, 468.1, hit, 1, 0
1154, 9, T_Scon, T_Scon_DRRR, 415.6, hit, 2, 0
1155, 9, T_Scon, T_Scon_DRRR, 499.0, hit, 2, 0
1156, 9, T_Sinc, T_Sinc_DGLG, 390.4, hit, 1, 0
1157, 9, T_Scon, T_Scon_UGLG, 401.9, hit, 1, 0
1158, 9, T_Sinc, T_Sinc_URRR, 413.3, hit, 2, 0
1159, 9, T_Scon, T_Scon_UGLG, 340.8, hit, 1, 0
1160, 9, T_Scon, T_Scon_UGLG, 368.1, hit, 1, 0
1161, 9, T_Sinc, T_Sinc_URRR, 687.6, hit, 2, 0
1162, 9, T_Scon, T_Scon_DRRR, 387.1, hit, 2, 0
1163, 9, T_Scon, T_Scon_DRRR, 342.4, hit, 2, 0
1164, 9, T_Sinc, T_Sinc_DGLG, 461.9, hit, 1, 0
1165, 9, T_Sinc, T_Sinc_URRR, 377.4, hit, 2, 0
1166, 9, T_Sinc, T_Sinc_DGLG, 432.9, hit, 1, 0
1167, 9, T_Scon, T_Scon_UGLG, 648.2, hit, 1, 0
1168, 9, T_Sinc, T_Sinc_DGLG, 391.7, hit, 1, 0
1169, 9, T_Scon, T_Scon_DRRR, 451.1, hit, 2, 0
1170, 9, T_Scon, T_Scon_DRRR, 402.6, hit, 2, 0
1171, 9, T_Sinc, T_Sinc_URRR, 382.0, hit, 2, 0
1172, 9, T_Sinc, T_Sinc_DGLG, 365.4, hit, 1, 0
1173, 9, T_Sinc, T_Sinc_DGLG, 360.9, hit, 1, 0
1174, 9, T_Sinc, T_Sinc_URRR, 392.2, hit, 2, 0
1175, 9, T_Sinc, T_Sinc_DGLG, 475.7, hit, 1, 0
1176, 9, T_Scon, T_Scon_UGLG, 483.2, hit, 1, 0
1177, 9, T_Sinc, T_Sinc_URRR, 550.5, hit, 2, 0
1178, 9, T_Scon, T_Scon_DRRR, 598.0, hit, 2, 0
1179, 9, T_Sinc, T_Sinc_URRR, 613.5, hit, 2, 0
1180, 9, T_Scon, T_Scon_DRRR, 656.9, hit, 2, 0
1181, 9, T_Sinc, T_Sinc_URRR, 364.3, hit, 2, 0
1182, 9, T_Sinc, T_Sinc_URRR, 383.8, hit, 2, 0
1183, 9, T_Scon, T_Scon_UGLG, 419.2, hit, 1, 0
1184, 9, T_Sinc, T_Sinc_DGLG, 522.7, hit, 1, 0
1185, 9, T_Scon, T_Scon_UGLG, 350.1, hit, 1, 0
1186, 9, T_Sinc, T_Sinc_DGLG, 369.5, hit, 1, 0
1187, 9, T_Scon, T_Scon_UGLG, 317.0, hit, 1, 0
1188, 9, T_Sinc, T_Sinc_URRR, 540.4, hit, 2, 0
1189, 9, T_Scon, T_Scon_DRRR, 435.6, hit, 2, 0
1190, 9, T_Sinc, T_Sinc_URRR, 375.0, hit, 2, 0
1191, 9, T_Scon, T_Scon_DRRR, 434.4, hit, 2, 0
1192, 9, T_Scon, T_Scon_UGLG, 381.8, hit, 1, 0
1193, 9, T_Sinc, T_Sinc_URRR, 513.3, hit, 2, 0
1194, 9, T_Sinc, T_Sinc_DGLG, 380.8, hit, 1, 0
1195, 9, T_Sinc, T_Sinc_URRR, 368.1, hit, 2, 0
1196, 9, T_Sinc, T_Sinc_DGLG, 379.6, hit, 1, 0
1197, 9, T_Sinc, T_Sinc_DGLG, 399.1, hit, 1, 0
1198, 9, T_Scon, T_Scon_DRRR, 414.5, hit, 2, 0
1199, 9, T_Scon, T_Scon_UGLG, 377.9, hit, 1, 0
1200, 9, T_Sinc, T_Sinc_URRR, 453.4, hit, 2, 0
1201, 9, T_Sinc, T_Sinc_URRR, 320.8, hit, 2, 0
1202, 9, T_Scon, T_Scon_UGLG, 460.3, hit, 1, 0
1203, 9, T_Scon, T_Scon_UGLG, 359.7, hit, 1, 0
1204, 9, T_Sinc, T_Sinc_URRR, 363.1, hit, 2, 0
1205, 9, T_Scon, T_Scon_UGLG, 338.6, hit, 1, 0
1206, 9, T_Scon, T_Scon_DRRR, 513.9, hit, 2, 0
1207, 9, T_Scon, T_Scon_DRRR, 437.4, hit, 2, 0
1208, 9, T_Sinc, T_Sinc_DGLG, 544.9, hit, 1, 0
1209, 9, T_Sinc, T_Sinc_DGLG, 300.2, hit, 1, 0
1210, 9, T_Sinc, T_Sinc_URRR, 435.7, hit, 2, 0
1211, 9, T_Sinc, T_Sinc_URRR, 335.2, hit, 2, 0
1212, 9, T_Scon, T_Scon_DRRR, 490.6, hit, 2, 0
1213, 9, T_Scon, T_Scon_UGLG, 406.0, hit, 1, 0
1214, 9, T_Sinc, T_Sinc_URRR, 361.5, hit, 2, 0
1215, 9, T_Sinc, T_Sinc_URRR, 376.9, hit, 2, 0
1216, 9, T_Scon, T_Scon_UGLG, 412.4, hit, 1, 0
1217, 9, T_Scon, T_Scon_DRRR, 435.7, hit, 2, 0
1218, 9, T_Scon, T_Scon_UGLG, 923.2, hit, 1, 2
1219, 9, T_Scon, T_Scon_DRRR, 374.7, hit, 2, 0
1220, 9, T_Scon, T_Scon_UGLG, 610.1, hit, 1, 0
1221, 9, T_Sinc, T_Sinc_DGLG, 393.5, hit, 1, 0
1222, 9, T_Scon, T_Scon_UGLG, 401.0, hit, 1, 0
1223, 9, T_Scon, T_Scon_DRRR, 384.4, hit, 2, 0
1224, 9, T_Sinc, T_Sinc_DGLG, 351.9, hit, 1, 0
1225, 9, T_Scon, T_Scon_UGLG, 535.0, hit, 1, 0
1226, 9, T_Sinc, T_Sinc_URRR, 518.5, hit, 2, 0
1227, 9, T_Scon, T_Scon_UGLG, 405.8, hit, 1, 0
1228, 9, T_Sinc, T_Sinc_URRR, 393.3, hit, 2, 0
1229, 9, T_Sinc, T_Sinc_DGLG, 428.8, hit, 1, 0
1230, 9, T_Scon, T_Scon_UGLG, 420.2, hit, 1, 0
1231, 9, T_Sinc, T_Sinc_DGLG, 591.6, hit, 1, 0
1232, 9, T_Sinc, T_Sinc_URRR, 411.0, hit, 2, 0
1233, 9, T_Scon, T_Scon_UGLG, 470.5, hit, 1, 0
1234, 9, T_Scon, T_Scon_UGLG, 506.0, hit, 1, 0
1235, 9, T_Scon, T_Scon_DRRR, 477.3, hit, 2, 0
1236, 9, T_Scon, T_Scon_DRRR, 404.8, hit, 2, 0
1237, 9, T_Scon, T_Scon_DRRR, 360.3, hit, 2, 0
1238, 9, T_Sinc, T_Sinc_DGLG, 387.6, hit, 1, 0
1239, 9, T_Sinc, T_Sinc_DGLG, 471.1, hit, 1, 0
1240, 9, T_Sinc, T_Sinc_DGLG, 394.6, hit, 1, 0
1241, 9, T_Sinc, T_Sinc_URRR, 382.0, hit, 2, 0
1242, 9, T_Scon, T_Scon_DRRR, 433.4, hit, 2, 0
1243, 9, T_Sinc, T_Sinc_DGLG, 408.8, hit, 1, 0
1244, 9, T_Scon, T_Scon_UGLG, 460.3, hit, 1, 0
1245, 9, T_Sinc, T_Sinc_URRR, 399.8, hit, 2, 0
1246, 9, T_Scon, T_Scon_UGLG, 387.1, hit, 1, 0
1247, 9, T_Scon, T_Scon_DRRR, 506.6, hit, 2, 0
1248, 9, T_Sinc, T_Sinc_URRR, 326.1, hit, 2, 0
1249, 9, T_Sinc, T_Sinc_DGLG, 409.5, hit, 1, 0
1250, 9, T_Scon, T_Scon_DRRR, 452.9, hit, 2, 0
1251, 9, T_Sinc, T_Sinc_DGLG, 440.4, hit, 1, 0
1252, 9, T_Scon, T_Scon_UGLG, 563.8, hit, 1, 0
1253, 9, T_Sinc, T_Sinc_URRR, 623.2, hit, 2, 0
1254, 9, T_Sinc, T_Sinc_DGLG, 450.7, hit, 1, 0
1255, 9, T_Scon, T_Scon_UGLG, 438.1, hit, 1, 0
1256, 9, T_Sinc, T_Sinc_URRR, 425.6, hit, 2, 0
1257, 9, T_Sinc, T_Sinc_DGLG, 344.9, hit, 1, 0
1258, 9, T_Sinc, T_Sinc_DGLG, 344.4, hit, 1, 0
1259, 9, T_Sinc, T_Sinc_DGLG, 467.9, hit, 1, 0
1260, 9, T_Scon, T_Scon_UGLG, 431.3, hit, 1, 0
1261, 9, T_Sinc, T_Sinc_URRR, 0.1, miss, 2865969, 1
1262, 9, T_Scon, T_Scon_DRRR, 0.2, miss, 2885134, 1
1263, 9, T_Sinc, T_Sinc_DGLG, 0.1, miss, 2906300, 1
1264, 9, T_Sinc, T_Sinc_URRR, 576.7, hit, 2, 0
1265, 9, T_Sinc, T_Sinc_URRR, 308.2, hit, 2, 0
1266, 9, T_Scon, T_Scon_UGLG, 371.7, hit, 1, 0
1267, 9, T_Scon, T_Scon_DRRR, 495.0, hit, 2, 0
1268, 9, T_Sinc, T_Sinc_URRR, 330.5, hit, 2, 0
1269, 9, T_Scon, T_Scon_DRRR, 330.0, hit, 2, 0
1270, 9, T_Scon, T_Scon_UGLG, 389.3, hit, 1, 0
1271, 9, T_Scon, T_Scon_DRRR, 408.8, incorrect, 1, 1
1272, 9, T_Scon, T_Scon_UGLG, 424.2, hit, 1, 0
1273, 9, T_Scon, T_Scon_UGLG, 443.7, hit, 1, 0
1274, 9, T_Scon, T_Scon_UGLG, 519.1, hit, 1, 0
1275, 9, T_Scon, T_Scon_DRRR, 442.5, hit, 2, 0
1276, 9, T_Scon, T_Scon_DRRR, 390.0, hit, 2, 0
1277, 9, T_Sinc, T_Sinc_DGLG, 425.4, hit, 1, 0
1278, 9, T_Scon, T_Scon_DRRR, 472.8, hit, 2, 0
1279, 9, T_Sinc, T_Sinc_URRR, 796.3, hit, 2, 2
1280, 9, T_Sinc, T_Sinc_DGLG, 411.8, hit, 1, 0
1281, 9, T_Sinc, T_Sinc_DGLG, 399.1, hit, 1, 0
1282, 9, T_Sinc, T_Sinc_URRR, 386.6, hit, 2, 0
1283, 9, T_Scon, T_Scon_UGLG, 430.1, hit, 1, 0
1284, 9, T_Sinc, T_Sinc_DGLG, 453.4, hit, 1, 0
1285, 9, T_Sinc, T_Sinc_DGLG, 392.9, hit, 1, 0
1286, 9, T_Scon, T_Scon_UGLG, 452.4, hit, 1, 0
1287, 9, T_Scon, T_Scon_DRRR, 443.7, hit, 2, 0
1288, 9, T_Scon, T_Scon_DRRR, 371.2, hit, 2, 0
1289, 9, T_Scon, T_Scon_DRRR, 374.6, hit, 2, 0
1290, 9, T_Scon, T_Scon_DRRR, 350.0, hit, 2, 0
1291, 9, T_Sinc, T_Sinc_DGLG, 449.5, hit, 1, 0
1292, 9, T_Sinc, T_Sinc_DGLG, 376.9, hit, 1, 0
1293, 9, T_Sinc, T_Sinc_URRR, 448.4, hit, 2, 0
1294, 9, T_Sinc, T_Sinc_URRR, 359.8, hit, 2, 0
1295, 9, T_Scon, T_Scon_DRRR, 683.2, hit, 2, 0
1296, 9, T_Scon, T_Scon_DRRR, 558.7, hit, 2, 0
