trial_index, block, condition, full_condition_code, RT, response_type, response_key, error_outlier
1, 1, T_Sinc, T_Sinc_URRR, 665.0, hit, 2, 2
2, 1, T_Scon, T_Scon_DRRR, 332.4, hit, 2, 0
3, 1, T_Sinc, T_Sinc_DGLG, 383.8, hit, 1, 0
4, 1, T_Scon, T_Scon_DRRR, 339.3, hit, 2, 0
5, 1, T_Sinc, T_Sinc_DGLG, 334.7, hit, 1, 0
6, 1, T_Scon, T_Scon_UGLG, 322.2, hit, 1, 0
7, 1, T_Sinc, T_Sinc_URRR, 365.6, hit, 2, 0
8, 1, T_Sinc, T_Sinc_URRR, 361.0, incorrect, 1, 1
9, 1, T_Sinc, T_Sinc_URRR, 480.5, hit, 2, 0
10, 1, T_Scon, T_Scon_DRRR, 427.9, hit, 2, 0
11, 1, T_Scon, T_Scon_DRRR, 375.3, hit, 2, 0
12, 1, T_Sinc, T_Sinc_DGLG, 322.8, hit, 1, 0
13, 1, T_Scon, T_Scon_UGLG, 358.3, hit, 1, 0
14, 1, T_Scon, T_Scon_DRRR, 337.6, hit, 2, 0
15, 1, T_Scon, T_Scon_DRRR, 413.1, hit, 2, 0
16, 1, T_Scon, T_Scon_DRRR, 392.5, hit, 2, 0
17, 1, T_Scon, T_Scon_DRRR, 347.9, hit, 2, 0
18, 1, T_Scon, T_Scon_DRRR, 375.4, hit, 2, 0
19, 1, T_Sinc, T_Sinc_URRR, 366.8, hit, 2, 0
20, 1, T_Scon, T_Scon_UGLG, 330.2, hit, 1, 0
21, 1, T_Sinc, T_Sinc_DGLG, 357.6, hit, 1, 0
22, 1, T_Sinc, T_Sinc_DGLG, 329.1, hit, 1, 0
23, 1, T_Scon, T_Scon_UGLG, 316.6, hit, 1, 0
24, 1, T_Scon, T_Scon_UGLG, 336.0, hit, 1, 0
25, 1, T_Sinc, T_Sinc_DGLG, 323.4, hit, 1, 0
26, 1, T_Scon, T_Scon_UGLG, 330.9, hit, 1, 0
27, 1, T_Sinc, T_Sinc_DGLG, 342.4, hit, 1, 0
28, 1, T_Scon, T_Scon_DRRR, 341.7, hit, 2, 0
29, 1, T_Sinc, T_Sinc_URRR, 465.2, hit, 2, 0
30, 1, T_Scon, T_Scon_DRRR, 512.7, hit, 2, 0
31, 1, T_Scon, T_Scon_UGLG, 372.0, hit, 1, 0
32, 1, T_Sinc, T_Sinc_DGLG, 367.5, hit, 1, 0
33, 1, T_Scon, T_Scon_UGLG, 315.0, hit, 1, 0
34, 1, T_Sinc, T_Sinc_DGLG, 290.4, hit, 1, 0
35, 1, T_Sinc, T_Sinc_URRR, 381.8, hit, 2, 0
36, 1, T_Sinc, T_Sinc_DGLG, 397.2, hit, 1, 0
37, 1, T_Scon, T_Scon_UGLG, 652.4, hit, 1, 2
38, 1, T_Sinc, T_Sinc_DGLG, 415.8, hit, 1, 0
39, 1, T_Sinc, T_Sinc_DGLG, 315.3, hit, 1, 0
40, 1, T_Scon, T_Scon_DRRR, 302.7, hit, 2, 0
41, 1, T_Scon, T_Scon_DRRR, 338.2, hit, 2, 0
42, 1, T_Scon, T_Scon_UGLG, 397.5, hit, 1, 0
43, 1, T_Scon, T_Scon_UGLG, 325.0, hit, 1, 0
44, 1, T_Sinc, T_Sinc_URRR, 376.5, hit, 2, 0
45, 1, T_Sinc, T_Sinc_DGLG, 343.9, hit, 1, 0
46, 1, T_Scon, T_Scon_UGLG, 331.3, hit, 1, 0
47, 1, T_Scon, T_Scon_DRRR, 326.8, hit, 2, 0
48, 1, T_Sinc, T_Sinc_DGLG, 338.2, hit, 1, 0
49, 1, T_Scon, T_Scon_DRRR, 369.6, hit, 2, 0
50, 1, T_Sinc, T_Sinc_DGLG, 385.1, hit, 1, 0
51, 1, T_Sinc, T_Sinc_URRR, 388.6, hit, 2, 0
52, 1, T_Scon, T_Scon_DRRR, 403.9, hit, 2, 0
53, 1, T_Scon, T_Scon_UGLG, 355.4, hit, 1, 0
54, 1, T_Sinc, T_Sinc_URRR, 406.8, hit, 2, 0
55, 1, T_Scon, T_Scon_DRRR, 370.3, hit, 2, 0
56, 1, T_Sinc, T_Sinc_DGLG, 385.7, hit, 1, 0
57, 1, T_Scon, T_Scon_DRRR, 353.1, hit, 2, 0
58, 1, T_Sinc, T_Sinc_DGLG, 492.6, hit, 1, 0
59, 1, T_Scon, T_Scon_UGLG, 352.0, hit, 1, 0
60, 1, T_Scon, T_Scon_UGLG, 335.4, hit, 1, 0
61, 1, T_Scon, T_Scon_DRRR, 362.9, hit, 2, 0
62, 1, T_Sinc, T_Sinc_URRR, 362.3, hit, 2, 0
63, 1, T_Sinc, T_Sinc_DGLG, 389.7, hit, 1, 0
64, 1, T_Sinc, T_Sinc_URRR, 373.2, hit, 2, 0
65, 1, T_Sinc, T_Sinc_URRR, 448.6, hit, 2, 0
66, 1, T_Sinc, T_Sinc_DGLG, 368.0, hit, 1, 0
67, 1, T_Sinc, T_Sinc_URRR, 411.5, hit, 2, 0
68, 1, T_Scon, T_Scon_DRRR, 338.9, hit, 2, 0
69, 1, T_Sinc, T_Sinc_URRR, 326.3, hit, 2, 0
70, 1, T_Scon, T_Scon_UGLG, 345.8, hit, 1, 0
71, 1, T_Scon, T_Scon_UGLG, 337.2, hit, 1, 0
72, 1, T_Scon, T_Scon_DRRR, 400.7, hit, 2, 0
73, 1, T_Sinc, T_Sinc_URRR, 455.8, hit, 2, 0
74, 1, T_Scon, T_Scon_UGLG, 307.3, hit, 1, 0
75, 1, T_Scon, T_Scon_UGLG, 326.7, hit, 1, 0
76, 1, T_Sinc, T_Sinc_DGLG, 386.1, hit, 1, 0
77, 1, T_Scon, T_Scon_DRRR, 365.6, hit, 2, 0
78, 1, T_Scon, T_Scon_UGLG, 397.0, hit, 1, 0
79, 1, T_Sinc, T_Sinc_URRR, 376.4, hit, 2, 0
80, 1, T_Scon, T_Scon_DRRR, 363.8, hit, 2, 0
81, 1, T_Scon, T_Scon_DRRR, 387.3, hit, 2, 0
82, 1, T_Sinc, T_Sinc_DGLG, 346.8, hit, 1, 0
83, 1, T_Scon, T_Scon_UGLG, 318.1, hit, 1, 0
84, 1, T_Sinc, T_Sinc_URRR, 369.6, hit, 2, 0
85, 1, T_Sinc, T_Sinc_DGLG, 445.1, hit, 1, 0
86, 1, T_Sinc, T_Sinc_URRR, 316.5, hit, 2, 0
87, 1, T_Scon, T_Scon_DRRR, 407.9, hit, 2, 0
88, 1, T_Scon, T_Scon_UGLG, 395.3, hit, 1, 0
89, 1, T_Sinc, T_Sinc_URRR, 470.8, hit, 2, 0
90, 1, T_Scon, T_Scon_DRRR, 362.2, hit, 2, 0
91, 1, T_Sinc, T_Sinc_DGLG, 405.6, hit, 1, 0
92, 1, T_Scon, T_Scon_UGLG, 417.1, hit, 1, 0
93, 1, T_Sinc, T_Sinc_DGLG, 360.6, incorrect, 2, 1
94, 1, T_Sinc, T_Sinc_DGLG, 451.9, hit, 1, 0
95, 1, T_Scon, T_Scon_DRRR, 435.4, hit, 2, 0
96, 1, T_Sinc, T_Sinc_DGLG, 458.9, hit, 1, 0
97, 1, T_Scon, T_Scon_UGLG, 318.3, hit, 1, 0
98, 1, T_Sinc, T_Sinc_URRR, 409.7, hit, 2, 0
99, 1, T_Sinc, T_Sinc_URRR, 357.2, hit, 2, 0
100, 1, T_Scon, T_Scon_UGLG, 356.6, hit, 1, 0
101, 1, T_Scon, T_Scon_DRRR, 376.0, hit, 2, 0
102, 1, T_Scon, T_Scon_DRRR, 435.5, hit, 2, 0
103, 1, T_Sinc, T_Sinc_URRR, 362.9, hit, 2, 0
104, 1, T_Sinc, T_Sinc_URRR, 334.4, hit, 2, 0
105, 1, T_Scon, T_Scon_UGLG, 421.7, hit, 1, 0
106, 1, T_Scon, T_Scon_DRRR, 389.2, hit, 2, 0
107, 1, T_Sinc, T_Sinc_URRR, 364.7, hit, 2, 0
108, 1, T_Scon, T_Scon_UGLG, 332.1, hit, 1, 0
109, 1, T_Sinc, T_Sinc_URRR, 519.3, hit, 2, 2
110, 1, T_Sinc, T_Sinc_URRR, 286.7, hit, 2, 0
111, 1, T_Sinc, T_Sinc_URRR, 262.1, hit, 2, 0
112, 1, T_Sinc, T_Sinc_URRR, 257.5, hit, 2, 0
113, 1, T_Sinc, T_Sinc_URRR, 281.0, hit, 2, 0
114, 1, T_Sinc, T_Sinc_DGLG, 352.5, hit, 1, 0
115, 1, T_Scon, T_Scon_DRRR, 355.8, hit, 2, 0
116, 1, T_Sinc, T_Sinc_DGLG, 347.3, hit, 1, 0
117, 1, T_Sinc, T_Sinc_URRR, 346.8, hit, 2, 0
118, 1, T_Scon, T_Scon_UGLG, 366.1, hit, 1, 0
119, 1, T_Scon, T_Scon_DRRR, 305.6, hit, 2, 0
120, 1, T_Sinc, T_Sinc_DGLG, 565.0, hit, 1, 2
121, 1, T_Sinc, T_Sinc_URRR, 360.5, hit, 2, 0
122, 1, T_Scon, T_Scon_UGLG, 316.0, hit, 1, 0
123, 1, T_Scon, T_Scon_DRRR, 375.3, hit, 2, 0
124, 1, T_Scon, T_Scon_DRRR, 442.8, hit, 2, 0
125, 1, T_Sinc, T_Sinc_URRR, 410.3, hit, 2, 0
126, 1, T_Sinc, T_Sinc_DGLG, 381.6, hit, 1, 0
127, 1, T_Scon, T_Scon_UGLG, 277.1, hit, 1, 0
128, 1, T_Sinc, T_Sinc_URRR, 360.6, hit, 2, 0
129, 1, T_Scon, T_Scon_DRRR, 404.0, hit, 2, 0
130, 1, T_Sinc, T_Sinc_DGLG, 323.4, hit, 1, 0
131, 1, T_Sinc, T_Sinc_URRR, 362.9, incorrect, 1, 1
132, 1, T_Sinc, T_Sinc_URRR, 370.3, hit, 2, 0
133, 1, T_Scon, T_Scon_UGLG, 317.7, hit, 1, 0
134, 1, T_Scon, T_Scon_UGLG, 329.1, hit, 1, 0
135, 1, T_Scon, T_Scon_UGLG, 280.6, hit, 1, 0
136, 1, T_Sinc, T_Sinc_DGLG, 324.1, hit, 1, 0
137, 1, T_Sinc, T_Sinc_DGLG, 319.5, hit, 1, 0
138, 1, T_Scon, T_Scon_UGLG, 346.9, hit, 1, 0
139, 1, T_Scon, T_Scon_UGLG, 286.4, hit, 1, 0
140, 1, T_Sinc, T_Sinc_DGLG, 329.8, hit, 1, 0
141, 1, T_Scon, T_Scon_UGLG, 261.3, hit, 1, 0
142, 1, T_Sinc, T_Sinc_DGLG, 312.7, hit, 1, 0
143, 1, T_Scon, T_Scon_DRRR, 316.1, hit, 2, 0
144, 1, T_Sinc, T_Sinc_DGLG, 351.5, hit, 1, 0
145, 2, T_Sinc, T_Sinc_DGLG, 611.1, hit, 1, 2
146, 2, T_Scon, T_Scon_UGLG, 422.5, hit, 1, 0
147, 2, T_Scon, T_Scon_UGLG, 225.9, hit, 1, 0
148, 2, T_Scon, T_Scon_UGLG, 221.4, hit, 1, 0
149, 2, T_Sinc, T_Sinc_DGLG, 312.7, hit, 1, 0
150, 2, T_Sinc, T_Sinc_URRR, 328.2, hit, 2, 0
151, 2, T_Scon, T_Scon_DRRR, 331.7, hit, 2, 0
152, 2, T_Scon, T_Scon_DRRR, 295.1, hit, 2, 0
153, 2, T_Sinc, T_Sinc_DGLG, 298.5, hit, 1, 0
154, 2, T_Scon, T_Scon_DRRR, 253.9, hit, 2, 0
155, 2, T_Scon, T_Scon_DRRR, 341.3, hit, 2, 0
156, 2, T_Scon, T_Scon_DRRR, 348.8, hit, 2, 0
157, 2, T_Sinc, T_Sinc_DGLG, 380.3, hit, 1, 0
158, 2, T_Sinc, T_Sinc_URRR, 359.7, incorrect, 1, 1
159, 2, T_Sinc, T_Sinc_URRR, 379.1, hit, 2, 0
160, 2, T_Sinc, T_Sinc_DGLG, 326.5, hit, 1, 0
161, 2, T_Sinc, T_Sinc_URRR, 374.0, hit, 2, 0
162, 2, T_Sinc, T_Sinc_URRR, 425.4, hit, 2, 0
163, 2, T_Scon, T_Scon_DRRR, 476.8, hit, 2, 0
164, 2, T_Scon, T_Scon_UGLG, 336.3, hit, 1, 0
165, 2, T_Scon, T_Scon_DRRR, 379.8, hit, 2, 0
166, 2, T_Sinc, T_Sinc_URRR, 351.1, hit, 2, 0
167, 2, T_Scon, T_Scon_DRRR, 370.6, hit, 2, 0
168, 2, T_Sinc, T_Sinc_DGLG, 374.1, hit, 1, 0
169, 2, T_Sinc, T_Sinc_DGLG, 317.4, hit, 1, 0
170, 2, T_Scon, T_Scon_UGLG, 300.9, hit, 1, 0
171, 2, T_Sinc, T_Sinc_DGLG, 288.4, hit, 1, 0
172, 2, T_Scon, T_Scon_UGLG, 299.8, hit, 1, 0
173, 2, T_Sinc, T_Sinc_URRR, 383.2, hit, 2, 0
174, 2, T_Scon, T_Scon_UGLG, 362.7, hit, 1, 0
175, 2, T_Sinc, T_Sinc_DGLG, 338.1, hit, 1, 0
176, 2, T_Sinc, T_Sinc_DGLG, 317.5, hit, 1, 0
177, 2, T_Sinc, T_Sinc_URRR, 364.9, hit, 2, 0
178, 2, T_Sinc, T_Sinc_DGLG, 296.4, hit, 1, 0
179, 2, T_Scon, T_Scon_DRRR, 395.9, hit, 2, 0
180, 2, T_Scon, T_Scon_DRRR, 307.2, hit, 2, 0
181, 2, T_Scon, T_Scon_DRRR, 546.5, hit, 2, 2
182, 2, T_Scon, T_Scon_DRRR, 301.8, hit, 2, 0
183, 2, T_Sinc, T_Sinc_URRR, 401.3, hit, 2, 0
184, 2, T_Scon, T_Scon_UGLG, 372.7, hit, 1, 0
185, 2, T_Sinc, T_Sinc_DGLG, 284.1, hit, 1, 0
186, 2, T_Sinc, T_Sinc_URRR, 303.6, hit, 2, 0
187, 2, T_Sinc, T_Sinc_DGLG, 323.0, hit, 1, 0
188, 2, T_Scon, T_Scon_UGLG, 330.5, hit, 1, 0
189, 2, T_Sinc, T_Sinc_URRR, 345.9, hit, 2, 0
190, 2, T_Scon, T_Scon_DRRR, 349.3, hit, 2, 0
191, 2, T_Sinc, T_Sinc_URRR, 292.8, hit, 2, 0
192, 2, T_Sinc, T_Sinc_URRR, 312.2, hit, 2, 0
193, 2, T_Scon, T_Scon_DRRR, 295.6, hit, 2, 0
194, 2, T_Scon, T_Scon_DRRR, 307.1, hit, 2, 0
195, 2, T_Sinc, T_Sinc_DGLG, 350.5, hit, 1, 0
196, 2, T_Scon, T_Scon_DRRR, 313.9, hit, 2, 0
197, 2, T_Scon, T_Scon_DRRR, 349.4, hit, 2, 0
198, 2, T_Sinc, T_Sinc_DGLG, 356.8, hit, 1, 0
199, 2, T_Sinc, T_Sinc_URRR, 340.3, hit, 2, 0
200, 2, T_Scon, T_Scon_DRRR, 307.7, hit, 2, 0
201, 2, T_Scon, T_Scon_UGLG, 319.1, hit, 1, 0
202, 2, T_Sinc, T_Sinc_URRR, 394.6, hit, 2, 0
203, 2, T_Scon, T_Scon_DRRR, 318.0, hit, 2, 0
204, 2, T_Sinc, T_Sinc_DGLG, 349.5, hit, 1, 0
205, 2, T_Sinc, T_Sinc_DGLG, 240.9, hit, 1, 0
206, 2, T_Sinc, T_Sinc_URRR, 324.3, hit, 2, 0
207, 2, T_Scon, T_Scon_UGLG, 387.8, hit, 1, 0
208, 2, T_Scon, T_Scon_UGLG, 287.3, hit, 1, 0
209, 2, T_Scon, T_Scon_DRRR, 394.6, hit, 2, 0
210, 2, T_Sinc, T_Sinc_DGLG, 406.1, hit, 1, 0
211, 2, T_Scon, T_Scon_UGLG, 301.6, hit, 1, 0
212, 2, T_Sinc, T_Sinc_DGLG, 356.9, hit, 1, 0
213, 2, T_Scon, T_Scon_UGLG, 320.4, hit, 1, 0
214, 2, T_Scon, T_Scon_DRRR, 363.9, hit, 2, 0
215, 2, T_Sinc, T_Sinc_DGLG, 343.3, hit, 1, 0
216, 2, T_Sinc, T_Sinc_DGLG, 346.7, hit, 1, 0
217, 2, T_Scon, T_Scon_UGLG, 657.9, hit, 1, 2
218, 2, T_Scon, T_Scon_UGLG, 293.3, hit, 1, 0
219, 2, T_Sinc, T_Sinc_URRR, 348.7, hit, 2, 0
220, 2, T_Scon, T_Scon_UGLG, 392.2, hit, 1, 0
221, 2, T_Scon, T_Scon_DRRR, 319.6, hit, 2, 0
222, 2, T_Scon, T_Scon_DRRR, 299.0, hit, 2, 0
223, 2, T_Scon, T_Scon_UGLG, 282.5, hit, 1, 0
224, 2, T_Sinc, T_Sinc_URRR, 349.9, incorrect, 1, 1
225, 2, T_Sinc, T_Sinc_DGLG, 429.3, hit, 1, 0
226, 2, T_Sinc, T_Sinc_URRR, 352.8, hit, 2, 0
227, 2, T_Sinc, T_Sinc_DGLG, 404.2, hit, 1, 0
228, 2, T_Scon, T_Scon_DRRR, 351.6, hit, 2, 0
229, 2, T_Scon, T_Scon_DRRR, 331.1, hit, 2, 0
230, 2, T_Scon, T_Scon_DRRR, 290.5, hit, 2, 0
231, 2, T_Scon, T_Scon_DRRR, 326.0, hit, 2, 0
232, 2, T_Sinc, T_Sinc_URRR, 421.4, hit, 2, 0
233, 2, T_Sinc, T_Sinc_URRR, 376.8, hit, 2, 0
234, 2, T_Sinc, T_Sinc_URRR, 276.3, hit, 2, 0
235, 2, T_Scon, T_Scon_UGLG, 327.8, hit, 1, 0
236, 2, T_Scon, T_Scon_UGLG, 251.1, hit, 1, 0
237, 2, T_Scon, T_Scon_UGLG, 270.6, hit, 1, 0
238, 2, T_Sinc, T_Sinc_DGLG, 354.0, hit, 1, 0
239, 2, T_Sinc, T_Sinc_DGLG, 329.4, hit, 1, 0
240, 2, T_Scon, T_Scon_UGLG, 280.9, hit, 1, 0
241, 2, T_Sinc, T_Sinc_DGLG, 340.3, hit, 1, 0
242, 2, T_Scon, T_Scon_UGLG, 315.8, hit, 1, 0
243, 2, T_Scon, T_Scon_UGLG, 271.2, hit, 1, 0
244, 2, T_Scon, T_Scon_UGLG, 234.6, hit, 1, 0
245, 2, T_Scon, T_Scon_DRRR, 438.1, hit, 2, 0
246, 2, T_Sinc, T_Sinc_DGLG, 441.6, hit, 1, 0
247, 2, T_Sinc, T_Sinc_URRR, 477.0, hit, 2, 0
248, 2, T_Scon, T_Scon_DRRR, 404.4, hit, 2, 0
249, 2, T_Scon, T_Scon_UGLG, 387.8, hit, 1, 0
250, 2, T_Sinc, T_Sinc_DGLG, 335.3, hit, 1, 0
251, 2, T_Sinc, T_Sinc_URRR, 362.8, hit, 2, 0
252, 2, T_Scon, T_Scon_UGLG, 358.1, hit, 1, 0
253, 2, T_Scon, T_Scon_UGLG, 545.4, hit, 1, 2
254, 2, T_Scon, T_Scon_UGLG, 300.7, hit, 1, 0
255, 2, T_Sinc, T_Sinc_URRR, 352.2, hit, 2, 0
256, 2, T_Scon, T_Scon_DRRR, 323.7, hit, 2, 0
257, 2, T_Scon, T_Scon_DRRR, 327.1, hit, 2, 0
258, 2, T_Scon, T_Scon_DRRR, 346.5, hit, 2, 0
259, 2, T_Sinc, T_Sinc_URRR, 253.9, hit, 2, 0
260, 2, T_Scon, T_Scon_DRRR, 325.4, hit, 2, 0
261, 2, T_Sinc, T_Sinc_DGLG, 352.9, hit, 1, 0
262, 2, T_Sinc, T_Sinc_URRR, 304.2, hit, 2, 0
263, 2, T_Sinc, T_Sinc_DGLG, 315.7, hit, 1, 0
264, 2, T_Sinc, T_Sinc_URRR, 311.1, hit, 2, 0
265, 2, T_Sinc, T_Sinc_URRR, 342.5, hit, 2, 0
266, 2, T_Scon, T_Scon_UGLG, 354.0, hit, 1, 0
267, 2, T_Sinc, T_Sinc_URRR, 481.4, hit, 2, 0
268, 2, T_Scon, T_Scon_UGLG, 416.8, hit, 1, 0
269, 2, T_Sinc, T_Sinc_DGLG, 340.3, hit, 1, 0
270, 2, T_Scon, T_Scon_UGLG, 327.7, hit, 1, 0
271, 2, T_Scon, T_Scon_UGLG, 339.2, hit, 1, 0
272, 2, T_Sinc, T_Sinc_URRR, 338.6, hit, 2, 0
273, 2, T_Sinc, T_Sinc_URRR, 270.0, hit, 2, 0
274, 2, T_Sinc, T_Sinc_URRR, 273.5, hit, 2, 0
275, 2, T_Scon, T_Scon_DRRR, 381.0, hit, 2, 0
276, 2, T_Sinc, T_Sinc_DGLG, 384.3, hit, 1, 0
277, 2, T_Sinc, T_Sinc_DGLG, 327.8, hit, 1, 0
278, 2, T_Sinc, T_Sinc_URRR, 367.2, hit, 2, 0
279, 2, T_Sinc, T_Sinc_URRR, 286.6, hit, 2, 0
280, 2, T_Scon, T_Scon_UGLG, 338.1, hit, 1, 0
281, 2, T_Scon, T_Scon_UGLG, 357.5, hit, 1, 0
282, 2, T_Scon, T_Scon_DRRR, 349.0, hit, 2, 0
283, 2, T_Scon, T_Scon_DRRR, 308.4, hit, 2, 0
284, 2, T_Sinc, T_Sinc_DGLG, 331.8, hit, 1, 0
285, 2, T_Scon, T_Scon_UGLG, 283.3, hit, 1, 0
286, 2, T_Sinc, T_Sinc_URRR, 134.8, incorrect, 1, 1
287, 2, T_Sinc, T_Sinc_DGLG, 282.1, hit, 1, 0
288, 2, T_Sinc, T_Sinc_DGLG, 337.6, hit, 1, 0
289, 3, T_Sinc, T_Sinc_URRR, 401.1, hit, 2, 0
290, 3, T_Sinc, T_Sinc_DGLG, 332.6, hit, 1, 0
291, 3, T_Sinc, T_Sinc_URRR, 316.0, hit, 2, 0
292, 3, T_Scon, T_Scon_DRRR, 343.5, hit, 2, 0
293, 3, T_Scon, T_Scon_UGLG, 338.8, hit, 1, 0
294, 3, T_Scon, T_Scon_DRRR, 346.3, hit, 2, 0
295, 3, T_Sinc, T_Sinc_URRR, 309.7, incorrect, 1, 1
296, 3, T_Sinc, T_Sinc_DGLG, 365.2, hit, 1, 0
297, 3, T_Scon, T_Scon_UGLG, 336.6, hit, 1, 0
298, 3, T_Scon, T_Scon_UGLG, 300.0, hit, 1, 0
299, 3, T_Sinc, T_Sinc_URRR, 383.4, hit, 2, 0
300, 3, T_Scon, T_Scon_DRRR, 334.8, hit, 2, 0
301, 3, T_Sinc, T_Sinc_URRR, 330.3, hit, 2, 0
302, 3, T_Scon, T_Scon_DRRR, 397.8, hit, 2, 0
303, 3, T_Sinc, T_Sinc_URRR, 289.2, hit, 2, 0
304, 3, T_Scon, T_Scon_DRRR, 356.6, hit, 2, 0
305, 3, T_Scon, T_Scon_UGLG, 384.1, hit, 1, 0
306, 3, T_Scon, T_Scon_UGLG, 259.5, hit, 1, 0
307, 3, T_Scon, T_Scon_DRRR, 390.9, hit, 2, 0
308, 3, T_Sinc, T_Sinc_URRR, 314.4, hit, 2, 0
309, 3, T_Sinc, T_Sinc_URRR, 309.8, hit, 2, 0
310, 3, T_Scon, T_Scon_UGLG, 385.2, hit, 1, 0
311, 3, T_Sinc, T_Sinc_URRR, 364.7, hit, 2, 0
312, 3, T_Sinc, T_Sinc_DGLG, 368.0, hit, 1, 0
313, 3, T_Scon, T_Scon_UGLG, 363.5, hit, 1, 0
314, 3, T_Sinc, T_Sinc_URRR, 359.0, hit, 2, 0
315, 3, T_Scon, T_Scon_UGLG, 338.4, hit, 1, 0
316, 3, T_Sinc, T_Sinc_URRR, 437.8, hit, 2, 0
317, 3, T_Sinc, T_Sinc_URRR, 281.3, hit, 2, 0
318, 3, T_Sinc, T_Sinc_URRR, 332.7, hit, 2, 0
319, 3, T_Sinc, T_Sinc_DGLG, 340.1, hit, 1, 0
320, 3, T_Scon, T_Scon_DRRR, 359.6, hit, 2, 0
321, 3, T_Sinc, T_Sinc_URRR, 335.0, hit, 2, 0
322, 3, T_Scon, T_Scon_UGLG, 434.5, hit, 1, 0
323, 3, T_Scon, T_Scon_UGLG, 325.9, hit, 1, 0
324, 3, T_Sinc, T_Sinc_URRR, 353.3, hit, 2, 0
325, 3, T_Sinc, T_Sinc_URRR, 472.6, hit, 2, 0
326, 3, T_Sinc, T_Sinc_DGLG, 323.9, hit, 1, 0
327, 3, T_Scon, T_Scon_UGLG, 295.4, hit, 1, 0
328, 3, T_Sinc, T_Sinc_DGLG, 274.8, incorrect, 2, 1
329, 3, T_Scon, T_Scon_DRRR, 342.2, hit, 2, 0
330, 3, T_Scon, T_Scon_UGLG, 321.7, hit, 1, 0
331, 3, T_Sinc, T_Sinc_DGLG, 365.1, hit, 1, 0
332, 3, T_Scon, T_Scon_UGLG, 304.6, hit, 1, 0
333, 3, T_Scon, T_Scon_DRRR, 299.9, hit, 2, 0
334, 3, T_Scon, T_Scon_UGLG, 295.4, hit, 1, 0
335, 3, T_Sinc, T_Sinc_DGLG, 414.9, hit, 1, 0
336, 3, T_Scon, T_Scon_DRRR, 402.2, hit, 2, 0
337, 3, T_Scon, T_Scon_UGLG, 325.7, hit, 1, 0
338, 3, T_Scon, T_Scon_DRRR, 345.1, hit, 2, 0
339, 3, T_Sinc, T_Sinc_DGLG, 388.7, hit, 1, 0
340, 3, T_Sinc, T_Sinc_URRR, 368.0, hit, 2, 0
341, 3, T_Scon, T_Scon_DRRR, 455.5, hit, 2, 0
342, 3, T_Sinc, T_Sinc_URRR, 522.9, hit, 2, 2
343, 3, T_Scon, T_Scon_UGLG, 322.3, hit, 1, 0
344, 3, T_Sinc, T_Sinc_URRR, 325.7, hit, 2, 0
345, 3, T_Sinc, T_Sinc_URRR, 369.2, hit, 2, 0
346, 3, T_Sinc, T_Sinc_DGLG, 336.7, hit, 1, 0
347, 3, T_Sinc, T_Sinc_DGLG, 304.0, hit, 1, 0
348, 3, T_Sinc, T_Sinc_DGLG, 291.5, hit, 1, 0
349, 3, T_Sinc, T_Sinc_URRR, 335.0, hit, 2, 0
350, 3, T_Sinc, T_Sinc_DGLG, 434.4, hit, 1, 0
351, 3, T_Sinc, T_Sinc_URRR, 309.8, hit, 2, 0
352, 3, T_Sinc, T_Sinc_URRR, 381.3, hit, 2, 0
353, 3, T_Scon, T_Scon_DRRR, 388.7, hit, 2, 0
354, 3, T_Sinc, T_Sinc_URRR, 344.2, hit, 2, 0
355, 3, T_Scon, T_Scon_DRRR, 315.6, hit, 2, 0
356, 3, T_Sinc, T_Sinc_DGLG, 375.0, hit, 1, 0
357, 3, T_Scon, T_Scon_DRRR, 358.5, hit, 2, 0
358, 3, T_Sinc, T_Sinc_DGLG, 349.8, hit, 1, 0
359, 3, T_Scon, T_Scon_UGLG, 345.3, hit, 1, 0
360, 3, T_Scon, T_Scon_DRRR, 364.8, hit, 2, 0
361, 3, T_Sinc, T_Sinc_URRR, 419.9, hit, 2, 0
362, 3, T_Scon, T_Scon_DRRR, 327.4, hit, 2, 0
363, 3, T_Scon, T_Scon_UGLG, 310.7, hit, 1, 0
364, 3, T_Scon, T_Scon_DRRR, 374.2, hit, 2, 0
365, 3, T_Scon, T_Scon_DRRR, 341.6, hit, 2, 0
366, 3, T_Scon, T_Scon_DRRR, 301.1, hit, 2, 0
367, 3, T_Scon, T_Scon_UGLG, 292.5, hit, 1, 0
368, 3, T_Scon, T_Scon_DRRR, 335.9, hit, 2, 0
369, 3, T_Sinc, T_Sinc_URRR, 283.4, incorrect, 1, 1
370, 3, T_Scon, T_Scon_UGLG, 366.9, hit, 1, 0
371, 3, T_Sinc, T_Sinc_URRR, 262.2, hit, 2, 0
372, 3, T_Sinc, T_Sinc_DGLG, 345.7, hit, 1, 0
373, 3, T_Scon, T_Scon_DRRR, 309.2, hit, 2, 0
374, 3, T_Scon, T_Scon_UGLG, 312.6, hit, 1, 0
375, 3, T_Sinc, T_Sinc_DGLG, 276.1, hit, 1, 0
376, 3, T_Scon, T_Scon_DRRR, 339.4, hit, 2, 0
377, 3, T_Scon, T_Scon_UGLG, 314.9, hit, 1, 0
378, 3, T_Sinc, T_Sinc_DGLG, 318.4, hit, 1, 0
379, 3, T_Scon, T_Scon_UGLG, 293.7, hit, 1, 0
380, 3, T_Scon, T_Scon_DRRR, 369.2, hit, 2, 0
381, 3, T_Sinc, T_Sinc_DGLG, 404.7, hit, 1, 0
382, 3, T_Scon, T_Scon_UGLG, 272.1, hit, 1, 0
383, 3, T_Sinc, T_Sinc_URRR, 359.5, hit, 2, 0
384, 3, T_Sinc, T_Sinc_DGLG, 431.0, hit, 1, 0
385, 3, T_Sinc, T_Sinc_URRR, 382.4, hit, 2, 0
386, 3, T_Scon, T_Scon_UGLG, 305.9, hit, 1, 0
387, 3, T_Scon, T_Scon_UGLG, 229.2, hit, 1, 0
388, 3, T_Scon, T_Scon_DRRR, 368.7, hit, 2, 0
389, 3, T_Scon, T_Scon_UGLG, 444.2, hit, 1, 0
390, 3, T_Sinc, T_Sinc_URRR, 371.6, hit, 2, 0
391, 3, T_Scon, T_Scon_DRRR, 511.0, hit, 2, 0
392, 3, T_Sinc, T_Sinc_DGLG, 322.5, hit, 1, 0
393, 3, T_Sinc, T_Sinc_DGLG, 273.9, hit, 1, 0
394, 3, T_Scon, T_Scon_DRRR, 361.3, hit, 2, 0
395, 3, T_Sinc, T_Sinc_DGLG, 336.7, hit, 1, 0
396, 3, T_Scon, T_Scon_UGLG, 332.2, hit, 1, 0
397, 3, T_Sinc, T_Sinc_URRR, 391.4, hit, 2, 0
398, 3, T_Sinc, T_Sinc_URRR, 282.8, hit, 2, 0
399, 3, T_Sinc, T_Sinc_URRR, 286.3, hit, 2, 0
400, 3, T_Sinc, T_Sinc_DGLG, 269.7, hit, 1, 0
401, 3, T_Scon, T_Scon_UGLG, 285.1, hit, 1, 0
402, 3, T_Scon, T_Scon_UGLG, 268.5, hit, 1, 0
403, 3, T_Scon, T_Scon_UGLG, 240.0, hit, 1, 0
404, 3, T_Scon, T_Scon_UGLG, 227.5, hit, 1, 0
405, 3, T_Scon, T_Scon_DRRR, 314.8, hit, 2, 0
406, 3, T_Sinc, T_Sinc_URRR, 374.3, hit, 2, 0
407, 3, T_Sinc, T_Sinc_DGLG, 313.8, hit, 1, 0
408, 3, T_Scon, T_Scon_DRRR, 269.2, hit, 2, 0
409, 3, T_Scon, T_Scon_DRRR, 252.6, hit, 2, 0
410, 3, T_Sinc, T_Sinc_URRR, 288.0, hit, 2, 0
411, 3, T_Sinc, T_Sinc_DGLG, 303.5, hit, 1, 0
412, 3, T_Sinc, T_Sinc_DGLG, 270.9, hit, 1, 0
413, 3, T_Scon, T_Scon_DRRR, 338.3, hit, 2, 0
414, 3, T_Sinc, T_Sinc_URRR, 309.8, hit, 2, 0
415, 3, T_Scon, T_Scon_UGLG, 285.3, hit, 1, 0
416, 3, T_Scon, T_Scon_DRRR, 336.6, hit, 2, 0
417, 3, T_Sinc, T_Sinc_DGLG, 372.1, hit, 1, 0
418, 3, T_Sinc, T_Sinc_DGLG, 455.6, hit, 1, 0
419, 3, T_Scon, T_Scon_DRRR, 363.0, hit, 2, 0
420, 3, T_Sinc, T_Sinc_DGLG, 522.4, hit, 1, 2
421, 3, T_Scon, T_Scon_DRRR, 373.9, hit, 2, 0
422, 3, T_Sinc, T_Sinc_DGLG, 293.3, hit, 1, 0
423, 3, T_Sinc, T_Sinc_DGLG, 352.8, hit, 1, 0
424, 3, T_Scon, T_Scon_DRRR, 492.2, hit, 2, 0
425, 3, T_Sinc, T_Sinc_DGLG, 307.6, hit, 1, 0
426, 3, T_Sinc, T_Sinc_DGLG, 375.1, hit, 1, 0
427, 3, T_Scon, T_Scon_UGLG, 318.4, hit, 1, 0
428, 3, T_Sinc, T_Sinc_DGLG, 245.9, hit, 1, 0
429, 3, T_Scon, T_Scon_UGLG, 289.4, hit, 1, 0
430, 3, T_Scon, T_Scon_DRRR, 316.8, hit, 2, 0
431, 3, T_Scon, T_Scon_UGLG, 284.2, hit, 1, 0
432, 3, T_Sinc, T_Sinc_DGLG, 243.7, hit, 1, 0
433, 4, T_Scon, T_Scon_UGLG, 327.5, hit, 1, 0
434, 4, T_Sinc, T_Sinc_DGLG, 322.9, hit, 1, 0
435, 4, T_Scon, T_Scon_DRRR, 358.4, hit, 2, 0
436, 4, T_Sinc, T_Sinc_URRR, 297.7, hit, 2, 0
437, 4, T_Scon, T_Scon_DRRR, 297.2, hit, 2, 0
438, 4, T_Sinc, T_Sinc_DGLG, 248.7, incorrect, 2, 1
439, 4, T_Scon, T_Scon_UGLG, 320.0, hit, 1, 0
440, 4, T_Scon, T_Scon_UGLG, 287.5, hit, 1, 0
441, 4, T_Sinc, T_Sinc_DGLG, 287.0, hit, 1, 0
442, 4, T_Scon, T_Scon_UGLG, 262.4, hit, 1, 0
443, 4, T_Scon, T_Scon_UGLG, 297.8, hit, 1, 0
444, 4, T_Sinc, T_Sinc_URRR, 361.3, hit, 2, 0
445, 4, T_Scon, T_Scon_UGLG, 300.7, hit, 1, 0
446, 4, T_Sinc, T_Sinc_DGLG, 240.2, hit, 1, 0
447, 4, T_Scon, T_Scon_UGLG, 219.5, hit, 1, 0
448, 4, T_Scon, T_Scon_DRRR, 419.0, hit, 2, 0
449, 4, T_Sinc, T_Sinc_URRR, 318.5, hit, 2, 0
450, 4, T_Scon, T_Scon_DRRR, 345.8, hit, 2, 0
451, 4, T_Scon, T_Scon_DRRR, 317.3, hit, 2, 0
452, 4, T_Scon, T_Scon_UGLG, 252.8, incorrect, 2, 1
453, 4, T_Sinc, T_Sinc_URRR, 296.2, hit, 2, 0
454, 4, T_Scon, T_Scon_DRRR, 355.6, hit, 2, 0
455, 4, T_Sinc, T_Sinc_URRR, 359.1, hit, 2, 0
456, 4, T_Sinc, T_Sinc_DGLG, 350.5, hit, 1, 0
457, 4, T_Scon, T_Scon_DRRR, 409.9, hit, 2, 0
458, 4, T_Sinc, T_Sinc_URRR, 365.3, hit, 2, 0
459, 4, T_Sinc, T_Sinc_DGLG, 312.8, hit, 1, 0
460, 4, T_Scon, T_Scon_DRRR, 392.3, hit, 2, 0
461, 4, T_Scon, T_Scon_UGLG, 343.7, hit, 1, 0
462, 4, T_Sinc, T_Sinc_URRR, 539.1, hit, 2, 2
463, 4, T_Sinc, T_Sinc_URRR, 286.5, hit, 2, 0
464, 4, T_Sinc, T_Sinc_DGLG, 338.0, hit, 1, 0
465, 4, T_Sinc, T_Sinc_DGLG, 285.4, hit, 1, 0
466, 4, T_Scon, T_Scon_UGLG, 328.9, hit, 1, 0
467, 4, T_Scon, T_Scon_DRRR, 344.3, hit, 2, 0
468, 4, T_Scon, T_Scon_UGLG, 295.7, hit, 1, 0
469, 4, T_Sinc, T_Sinc_DGLG, 434.9, hit, 1, 0
470, 4, T_Sinc, T_Sinc_DGLG, 326.3, hit, 1, 0
471, 4, T_Sinc, T_Sinc_URRR, 301.7, hit, 2, 0
472, 4, T_Scon, T_Scon_UGLG, 281.2, hit, 1, 0
473, 4, T_Sinc, T_Sinc_URRR, 332.6, hit, 2, 0
474, 4, T_Sinc, T_Sinc_DGLG, 336.1, incorrect, 2, 1
475, 4, T_Scon, T_Scon_DRRR, 403.5, hit, 2, 0
476, 4, T_Sinc, T_Sinc_URRR, 302.9, hit, 2, 0
477, 4, T_Sinc, T_Sinc_URRR, 294.4, hit, 2, 0
478, 4, T_Scon, T_Scon_DRRR, 385.8, hit, 2, 0
479, 4, T_Sinc, T_Sinc_URRR, 341.2, hit, 2, 0
480, 4, T_Scon, T_Scon_DRRR, 328.7, hit, 2, 0
481, 4, T_Scon, T_Scon_UGLG, 384.1, hit, 1, 0
482, 4, T_Sinc, T_Sinc_DGLG, 271.5, hit, 1, 0
483, 4, T_Scon, T_Scon_DRRR, 475.0, hit, 2, 0
484, 4, T_Scon, T_Scon_DRRR, 374.4, hit, 2, 0
485, 4, T_Sinc, T_Sinc_URRR, 329.8, hit, 2, 0
486, 4, T_Sinc, T_Sinc_URRR, 289.3, hit, 2, 0
487, 4, T_Scon, T_Scon_UGLG, 336.8, hit, 1, 0
488, 4, T_Scon, T_Scon_UGLG, 220.2, hit, 1, 0
489, 4, T_Scon, T_Scon_UGLG, 327.6, hit, 1, 0
490, 4, T_Sinc, T_Sinc_URRR, 351.0, hit, 2, 0
491, 4, T_Scon, T_Scon_UGLG, 446.5, hit, 1, 0
492, 4, T_Scon, T_Scon_UGLG, 321.9, hit, 1, 0
493, 4, T_Sinc, T_Sinc_DGLG, 425.3, hit, 1, 0
494, 4, T_Scon, T_Scon_DRRR, 368.8, hit, 2, 0
495, 4, T_Scon, T_Scon_DRRR, 328.2, hit, 2, 0
496, 4, T_Scon, T_Scon_DRRR, 283.6, hit, 2, 0
497, 4, T_Sinc, T_Sinc_URRR, 271.1, hit, 2, 0
498, 4, T_Sinc, T_Sinc_URRR, 290.6, hit, 2, 0
499, 4, T_Scon, T_Scon_DRRR, 381.9, hit, 2, 0
500, 4, T_Sinc, T_Sinc_DGLG, 297.4, hit, 1, 0
501, 4, T_Sinc, T_Sinc_URRR, 312.9, hit, 2, 0
502, 4, T_Sinc, T_Sinc_DGLG, 356.3, hit, 1, 0
503, 4, T_Sinc, T_Sinc_URRR, 343.7, hit, 2, 0
504, 4, T_Scon, T_Scon_UGLG, 475.1, hit, 1, 0
505, 4, T_Scon, T_Scon_DRRR, 666.4, hit, 2, 2
506, 4, T_Sinc, T_Sinc_DGLG, 377.7, hit, 1, 0
507, 4, T_Sinc, T_Sinc_DGLG, 253.2, hit, 1, 0
508, 4, T_Scon, T_Scon_DRRR, 336.6, hit, 2, 0
509, 4, T_Scon, T_Scon_UGLG, 288.0, hit, 1, 0
510, 4, T_Sinc, T_Sinc_URRR, 263.5, incorrect, 1, 1
511, 4, T_Scon, T_Scon_DRRR, 298.9, hit, 2, 0
512, 4, T_Sinc, T_Sinc_DGLG, 330.4, hit, 1, 0
513, 4, T_Sinc, T_Sinc_URRR, 341.8, hit, 2, 0
514, 4, T_Sinc, T_Sinc_URRR, 261.2, hit, 2, 0
515, 4, T_Sinc, T_Sinc_URRR, 328.7, hit, 2, 0
516, 4, T_Sinc, T_Sinc_URRR, 332.1, hit, 2, 0
517, 4, T_Sinc, T_Sinc_URRR, 259.5, hit, 2, 0
518, 4, T_Scon, T_Scon_UGLG, 363.0, hit, 1, 0
519, 4, T_Sinc, T_Sinc_DGLG, 358.5, hit, 1, 0
520, 4, T_Sinc, T_Sinc_DGLG, 269.8, hit, 1, 0
521, 4, T_Scon, T_Scon_UGLG, 305.3, hit, 1, 0
522, 4, T_Sinc, T_Sinc_DGLG, 284.7, hit, 1, 0
523, 4, T_Sinc, T_Sinc_URRR, 368.1, hit, 2, 0
524, 4, T_Scon, T_Scon_UGLG, 395.6, hit, 1, 0
525, 4, T_Scon, T_Scon_UGLG, 323.0, hit, 1, 0
526, 4, T_Scon, T_Scon_UGLG, 278.4, hit, 1, 0
527, 4, T_Sinc, T_Sinc_DGLG, 297.9, hit, 1, 0
528, 4, T_Sinc, T_Sinc_URRR, 257.3, hit, 2, 0
529, 4, T_Sinc, T_Sinc_DGLG, 284.8, hit, 1, 0
530, 4, T_Sinc, T_Sinc_DGLG, 264.2, hit, 1, 0
531, 4, T_Scon, T_Scon_UGLG, 311.6, hit, 1, 0
532, 4, T_Scon, T_Scon_DRRR, 411.1, hit, 2, 0
533, 4, T_Sinc, T_Sinc_DGLG, 334.6, incorrect, 2, 1
534, 4, T_Scon, T_Scon_DRRR, 354.0, incorrect, 1, 1
535, 4, T_Scon, T_Scon_UGLG, 397.4, hit, 1, 0
536, 4, T_Sinc, T_Sinc_DGLG, 416.8, hit, 1, 0
537, 4, T_Sinc, T_Sinc_DGLG, 380.3, hit, 1, 0
538, 4, T_Sinc, T_Sinc_URRR, 479.7, hit, 2, 0
539, 4, T_Sinc, T_Sinc_URRR, 347.1, hit, 2, 0
540, 4, T_Scon, T_Scon_DRRR, 466.6, hit, 2, 0
541, 4, T_Scon, T_Scon_UGLG, 385.7, hit, 1, 0
542, 4, T_Scon, T_Scon_DRRR, 317.2, hit, 2, 0
543, 4, T_Sinc, T_Sinc_URRR, 348.6, hit, 2, 0
544, 4, T_Sinc, T_Sinc_URRR, 344.1, hit, 2, 0
545, 4, T_Scon, T_Scon_DRRR, 299.5, hit, 2, 0
546, 4, T_Scon, T_Scon_DRRR, 310.9, hit, 2, 0
547, 4, T_Sinc, T_Sinc_DGLG, 362.4, hit, 1, 0
548, 4, T_Sinc, T_Sinc_DGLG, 301.8, hit, 1, 0
549, 4, T_Scon, T_Scon_DRRR, 345.2, hit, 2, 0
550, 4, T_Sinc, T_Sinc_DGLG, 404.7, hit, 1, 0
551, 4, T_Scon, T_Scon_UGLG, 304.2, hit, 1, 0
552, 4, T_Scon, T_Scon_UGLG, 267.6, hit, 1, 0
553, 4, T_Scon, T_Scon_DRRR, 283.0, hit, 2, 0
554, 4, T_Sinc, T_Sinc_URRR, 294.4, hit, 2, 0
555, 4, T_Scon, T_Scon_DRRR, 325.9, hit, 2, 0
556, 4, T_Scon, T_Scon_UGLG, 345.3, hit, 1, 0
557, 4, T_Sinc, T_Sinc_DGLG, 404.7, hit, 1, 0
558, 4, T_Sinc, T_Sinc_DGLG, 256.2, hit, 1, 0
559, 4, T_Scon, T_Scon_DRRR, 347.7, hit, 2, 0
560, 4, T_Scon, T_Scon_UGLG, 299.0, hit, 1, 0
561, 4, T_Scon, T_Scon_DRRR, 342.5, hit, 2, 0
562, 4, T_Sinc, T_Sinc_DGLG, 450.0, hit, 1, 0
563, 4, T_Sinc, T_Sinc_DGLG, 217.4, hit, 1, 0
564, 4, T_Scon, T_Scon_DRRR, 344.8, hit, 2, 0
565, 4, T_Scon, T_Scon_UGLG, 316.2, hit, 1, 0
566, 4, T_Scon, T_Scon_DRRR, 287.7, hit, 2, 0
567, 4, T_Sinc, T_Sinc_URRR, 315.1, hit, 2, 0
568, 4, T_Scon, T_Scon_UGLG, 318.5, hit, 1, 0
569, 4, T_Sinc, T_Sinc_DGLG, 258.0, hit, 1, 0
570, 4, T_Sinc, T_Sinc_URRR, 361.5, hit, 2, 0
571, 4, T_Sinc, T_Sinc_DGLG, 308.9, hit, 1, 0
572, 4, T_Scon, T_Scon_UGLG, 284.3, hit, 1, 0
573, 4, T_Scon, T_Scon_DRRR, 407.8, hit, 2, 0
574, 4, T_Sinc, T_Sinc_URRR, 347.2, hit, 2, 0
575, 4, T_Scon, T_Scon_UGLG, 334.6, hit, 1, 0
576, 4, T_Scon, T_Scon_DRRR, 326.1, hit, 2, 0
577, 5, T_Scon, T_Scon_UGLG, 557.1, hit, 1, 2
578, 5, T_Scon, T_Scon_DRRR, 384.4, hit, 2, 0
579, 5, T_Sinc, T_Sinc_DGLG, 351.9, hit, 1, 0
580, 5, T_Sinc, T_Sinc_URRR, 331.3, hit, 2, 0
581, 5, T_Scon, T_Scon_DRRR, 358.7, hit, 2, 0
582, 5, T_Scon, T_Scon_UGLG, 306.2, hit, 1, 0
583, 5, T_Sinc, T_Sinc_URRR, 309.6, hit, 2, 0
584, 5, T_Sinc, T_Sinc_URRR, 253.1, hit, 2, 0
585, 5, T_Sinc, T_Sinc_DGLG, 288.5, hit, 1, 0
586, 5, T_Scon, T_Scon_UGLG, 303.9, hit, 1, 0
587, 5, T_Sinc, T_Sinc_DGLG, 307.4, hit, 1, 0
588, 5, T_Scon, T_Scon_DRRR, 390.8, hit, 2, 0
589, 5, T_Scon, T_Scon_UGLG, 310.2, hit, 1, 0
590, 5, T_Scon, T_Scon_UGLG, 281.7, hit, 1, 0
591, 5, T_Scon, T_Scon_UGLG, 293.1, hit, 1, 0
592, 5, T_Sinc, T_Sinc_DGLG, 328.5, hit, 1, 0
593, 5, T_Sinc, T_Sinc_URRR, 320.0, hit, 2, 0
594, 5, T_Sinc, T_Sinc_DGLG, 279.4, hit, 1, 0
595, 5, T_Scon, T_Scon_UGLG, 378.9, hit, 1, 0
596, 5, T_Scon, T_Scon_DRRR, 430.3, hit, 2, 0
597, 5, T_Sinc, T_Sinc_URRR, 385.7, hit, 2, 0
598, 5, T_Sinc, T_Sinc_URRR, 301.2, hit, 2, 0
599, 5, T_Sinc, T_Sinc_URRR, 376.7, hit, 2, 0
600, 5, T_Sinc, T_Sinc_DGLG, 316.0, hit, 1, 0
601, 5, T_Scon, T_Scon_UGLG, 391.5, hit, 1, 0
602, 5, T_Scon, T_Scon_UGLG, 255.0, hit, 1, 0
603, 5, T_Sinc, T_Sinc_DGLG, 338.3, hit, 1, 0
604, 5, T_Scon, T_Scon_DRRR, 389.8, hit, 2, 0
605, 5, T_Sinc, T_Sinc_DGLG, 305.2, hit, 1, 0
606, 5, T_Sinc, T_Sinc_URRR, 240.7, incorrect, 1, 1
607, 5, T_Sinc, T_Sinc_DGLG, 360.1, hit, 1, 0
608, 5, T_Scon, T_Scon_DRRR, 351.5, hit, 2, 0
609, 5, T_Scon, T_Scon_UGLG, 307.0, hit, 1, 0
610, 5, T_Sinc, T_Sinc_DGLG, 338.5, hit, 1, 0
611, 5, T_Scon, T_Scon_DRRR, 337.8, hit, 2, 0
612, 5, T_Sinc, T_Sinc_DGLG, 309.3, hit, 1, 0
613, 5, T_Scon, T_Scon_DRRR, 516.4, hit, 2, 0
614, 5, T_Sinc, T_Sinc_DGLG, 395.9, hit, 1, 0
615, 5, T_Scon, T_Scon_DRRR, 327.3, hit, 2, 0
616, 5, T_Sinc, T_Sinc_URRR, 350.8, hit, 2, 0
617, 5, T_Scon, T_Scon_UGLG, 306.1, hit, 1, 0
618, 5, T_Scon, T_Scon_UGLG, 245.6, hit, 1, 0
619, 5, T_Sinc, T_Sinc_DGLG, 361.1, hit, 1, 0
620, 5, T_Sinc, T_Sinc_URRR, 432.5, hit, 2, 0
621, 5, T_Sinc, T_Sinc_URRR, 411.9, incorrect, 1, 1
622, 5, T_Sinc, T_Sinc_URRR, 303.4, hit, 2, 0
623, 5, T_Sinc, T_Sinc_URRR, 282.8, hit, 2, 0
624, 5, T_Sinc, T_Sinc_DGLG, 326.3, hit, 1, 0
625, 5, T_Scon, T_Scon_UGLG, 345.8, hit, 1, 0
626, 5, T_Scon, T_Scon_UGLG, 305.1, hit, 1, 0
627, 5, T_Sinc, T_Sinc_DGLG, 348.6, hit, 1, 0
628, 5, T_Scon, T_Scon_UGLG, 380.0, hit, 1, 0
629, 5, T_Scon, T_Scon_DRRR, 335.4, hit, 2, 0
630, 5, T_Sinc, T_Sinc_DGLG, 334.9, hit, 1, 0
631, 5, T_Scon, T_Scon_DRRR, 366.3, hit, 2, 0
632, 5, T_Sinc, T_Sinc_DGLG, 321.8, hit, 1, 0
633, 5, T_Scon, T_Scon_DRRR, 513.2, hit, 2, 0
634, 5, T_Scon, T_Scon_UGLG, 340.6, hit, 1, 0
635, 5, T_Sinc, T_Sinc_DGLG, 408.1, hit, 1, 0
636, 5, T_Sinc, T_Sinc_DGLG, 271.5, hit, 1, 0
637, 5, T_Scon, T_Scon_UGLG, 386.9, hit, 1, 0
638, 5, T_Scon, T_Scon_DRRR, 394.4, hit, 2, 0
639, 5, T_Scon, T_Scon_DRRR, 349.8, hit, 2, 0
640, 5, T_Scon, T_Scon_DRRR, 233.2, hit, 2, 0
641, 5, T_Sinc, T_Sinc_URRR, 340.7, hit, 2, 0
642, 5, T_Sinc, T_Sinc_URRR, 360.1, hit, 2, 0
643, 5, T_Scon, T_Scon_UGLG, 331.5, hit, 1, 0
644, 5, T_Sinc, T_Sinc_DGLG, 443.0, hit, 1, 0
645, 5, T_Sinc, T_Sinc_URRR, 402.4, hit, 2, 0
646, 5, T_Scon, T_Scon_UGLG, 421.8, hit, 1, 0
647, 5, T_Sinc, T_Sinc_URRR, 453.3, hit, 2, 0
648, 5, T_Sinc, T_Sinc_DGLG, 440.7, hit, 1, 0
649, 5, T_Scon, T_Scon_UGLG, 351.9, hit, 1, 0
650, 5, T_Scon, T_Scon_DRRR, 339.3, hit, 2, 0
651, 5, T_Sinc, T_Sinc_URRR, 262.8, hit, 2, 0
652, 5, T_Sinc, T_Sinc_DGLG, 310.2, hit, 1, 0
653, 5, T_Sinc, T_Sinc_DGLG, 313.6, hit, 1, 0
654, 5, T_Sinc, T_Sinc_DGLG, 325.1, hit, 1, 0
655, 5, T_Sinc, T_Sinc_URRR, 272.5, hit, 2, 0
656, 5, T_Sinc, T_Sinc_DGLG, 287.9, hit, 1, 0
657, 5, T_Sinc, T_Sinc_DGLG, 339.4, hit, 1, 0
658, 5, T_Sinc, T_Sinc_DGLG, 278.8, hit, 1, 0
659, 5, T_Sinc, T_Sinc_URRR, 278.2, hit, 2, 0
660, 5, T_Scon, T_Scon_UGLG, 297.6, hit, 1, 0
661, 5, T_Scon, T_Scon_UGLG, 293.1, hit, 1, 0
662, 5, T_Scon, T_Scon_DRRR, 384.5, hit, 2, 0
663, 5, T_Scon, T_Scon_UGLG, 395.9, hit, 1, 0
664, 5, T_Sinc, T_Sinc_DGLG, 243.4, hit, 1, 0
665, 5, T_Scon, T_Scon_DRRR, 358.9, hit, 2, 0
666, 5, T_Scon, T_Scon_UGLG, 254.2, hit, 1, 0
667, 5, T_Sinc, T_Sinc_URRR, 329.7, hit, 2, 0
668, 5, T_Scon, T_Scon_UGLG, 325.2, hit, 1, 0
669, 5, T_Sinc, T_Sinc_URRR, 372.6, hit, 2, 0
670, 5, T_Sinc, T_Sinc_DGLG, 312.0, hit, 1, 0
671, 5, T_Sinc, T_Sinc_URRR, 355.4, hit, 2, 0
672, 5, T_Scon, T_Scon_DRRR, 354.9, hit, 2, 0
673, 5, T_Sinc, T_Sinc_URRR, 342.3, hit, 2, 0
674, 5, T_Scon, T_Scon_UGLG, 297.7, hit, 1, 0
675, 5, T_Scon, T_Scon_DRRR, 305.2, hit, 2, 0
676, 5, T_Sinc, T_Sinc_URRR, 316.7, hit, 2, 0
677, 5, T_Scon, T_Scon_UGLG, 320.1, hit, 1, 0
678, 5, T_Sinc, T_Sinc_URRR, 387.5, hit, 2, 0
679, 5, T_Scon, T_Scon_DRRR, 463.0, incorrect, 1, 1
680, 5, T_Sinc, T_Sinc_URRR, 338.4, hit, 2, 0
681, 5, T_Scon, T_Scon_UGLG, 321.8, hit, 1, 0
682, 5, T_Scon, T_Scon_DRRR, 333.3, hit, 2, 0
683, 5, T_Scon, T_Scon_UGLG, 448.7, hit, 1, 0
684, 5, T_Scon, T_Scon_UGLG, 280.1, hit, 1, 0
685, 5, T_Sinc, T_Sinc_URRR, 423.3, hit, 2, 0
686, 5, T_Sinc, T_Sinc_URRR, 286.8, hit, 2, 0
687, 5, T_Sinc, T_Sinc_URRR, 274.2, hit, 2, 0
688, 5, T_Scon, T_Scon_DRRR, 309.6, hit, 2, 0
689, 5, T_Scon, T_Scon_DRRR, 301.1, hit, 2, 0
690, 5, T_Scon, T_Scon_DRRR, 288.5, hit, 2, 0
691, 5, T_Sinc, T_Sinc_DGLG, 399.9, hit, 1, 0
692, 5, T_Sinc, T_Sinc_DGLG, 211.3, hit, 1, 0
693, 5, T_Scon, T_Scon_DRRR, 366.8, hit, 2, 0
694, 5, T_Scon, T_Scon_DRRR, 282.3, hit, 2, 0
695, 5, T_Sinc, T_Sinc_DGLG, 253.6, hit, 1, 0
696, 5, T_Sinc, T_Sinc_URRR, 321.1, hit, 2, 0
697, 5, T_Sinc, T_Sinc_DGLG, 400.6, hit, 1, 0
698, 5, T_Scon, T_Scon_DRRR, 292.0, hit, 2, 0
699, 5, T_Sinc, T_Sinc_URRR, 399.4, hit, 2, 0
700, 5, T_Sinc, T_Sinc_DGLG, 346.9, hit, 1, 0
701, 5, T_Scon, T_Scon_UGLG, 626.3, hit, 1, 2
702, 5, T_Scon, T_Scon_DRRR, 361.7, hit, 2, 0
703, 5, T_Scon, T_Scon_DRRR, 365.1, incorrect, 1, 1
704, 5, T_Scon, T_Scon_UGLG, 328.6, hit, 1, 0
705, 5, T_Scon, T_Scon_UGLG, 344.1, hit, 1, 0
706, 5, T_Scon, T_Scon_DRRR, 419.4, hit, 2, 0
707, 5, T_Sinc, T_Sinc_DGLG, 366.9, hit, 1, 0
708, 5, T_Scon, T_Scon_DRRR, 362.4, hit, 2, 0
709, 5, T_Sinc, T_Sinc_DGLG, 389.8, hit, 1, 0
710, 5, T_Scon, T_Scon_DRRR, 441.2, hit, 2, 0
711, 5, T_Sinc, T_Sinc_URRR, 384.7, hit, 2, 0
712, 5, T_Sinc, T_Sinc_URRR, 328.1, hit, 2, 0
713, 5, T_Scon, T_Scon_DRRR, 371.5, hit, 2, 0
714, 5, T_Scon, T_Scon_UGLG, 339.0, hit, 1, 0
715, 5, T_Sinc, T_Sinc_URRR, 310.4, hit, 2, 0
716, 5, T_Sinc, T_Sinc_URRR, 305.9, hit, 2, 0
717, 5, T_Scon, T_Scon_DRRR, 373.2, hit, 2, 0
718, 5, T_Scon, T_Scon_UGLG, 388.7, hit, 1, 0
719, 5, T_Scon, T_Scon_DRRR, 368.2, hit, 2, 0
720, 5, T_Scon, T_Scon_UGLG, 383.5, hit, 1, 0
721, 6, T_Scon, T_Scon_UGLG, 417.3, incorrect, 2, 1
722, 6, T_Scon, T_Scon_UGLG, 360.7, hit, 1, 0
723, 6, T_Sinc, T_Sinc_DGLG, 352.2, hit, 1, 0
724, 6, T_Scon, T_Scon_UGLG, 291.5, hit, 1, 0
725, 6, T_Sinc, T_Sinc_DGLG, 311.0, hit, 1, 0
726, 6, T_Sinc, T_Sinc_URRR, 374.5, hit, 2, 0
727, 6, T_Sinc, T_Sinc_URRR, 321.8, hit, 2, 0
728, 6, T_Sinc, T_Sinc_URRR, 301.3, hit, 2, 0
729, 6, T_Sinc, T_Sinc_URRR, 276.7, hit, 2, 0
730, 6, T_Scon, T_Scon_DRRR, 396.2, hit, 2, 0
731, 6, T_Scon, T_Scon_DRRR, 331.6, hit, 2, 0
732, 6, T_Scon, T_Scon_UGLG, 363.0, hit, 1, 0
733, 6, T_Scon, T_Scon_DRRR, 318.5, hit, 2, 0
734, 6, T_Sinc, T_Sinc_DGLG, 338.0, hit, 1, 0
735, 6, T_Sinc, T_Sinc_DGLG, 273.3, hit, 1, 0
736, 6, T_Sinc, T_Sinc_URRR, 324.8, hit, 2, 0
737, 6, T_Scon, T_Scon_DRRR, 392.2, hit, 2, 0
738, 6, T_Sinc, T_Sinc_URRR, 287.7, hit, 2, 0
739, 6, T_Sinc, T_Sinc_DGLG, 311.1, hit, 1, 0
740, 6, T_Sinc, T_Sinc_DGLG, 338.5, hit, 1, 0
741, 6, T_Scon, T_Scon_UGLG, 302.0, hit, 1, 0
742, 6, T_Scon, T_Scon_UGLG, 289.5, hit, 1, 0
743, 6, T_Sinc, T_Sinc_DGLG, 364.8, hit, 1, 0
744, 6, T_Scon, T_Scon_UGLG, 340.3, hit, 1, 0
745, 6, T_Scon, T_Scon_UGLG, 319.8, hit, 1, 0
746, 6, T_Sinc, T_Sinc_DGLG, 315.1, hit, 1, 0
747, 6, T_Sinc, T_Sinc_DGLG, 234.6, hit, 1, 0
748, 6, T_Scon, T_Scon_DRRR, 398.0, hit, 2, 0
749, 6, T_Scon, T_Scon_UGLG, 305.5, hit, 1, 0
750, 6, T_Scon, T_Scon_DRRR, 324.9, hit, 2, 0
751, 6, T_Sinc, T_Sinc_URRR, 424.3, hit, 2, 0
752, 6, T_Scon, T_Scon_UGLG, 299.8, hit, 1, 0
753, 6, T_Scon, T_Scon_UGLG, 343.2, hit, 1, 0
754, 6, T_Sinc, T_Sinc_DGLG, 294.6, hit, 1, 0
755, 6, T_Scon, T_Scon_DRRR, 430.1, hit, 2, 0
756, 6, T_Sinc, T_Sinc_DGLG, 325.5, hit, 1, 0
757, 6, T_Scon, T_Scon_UGLG, 508.7, hit, 1, 0
758, 6, T_Sinc, T_Sinc_URRR, 288.1, hit, 2, 0
759, 6, T_Scon, T_Scon_UGLG, 283.5, hit, 1, 0
760, 6, T_Scon, T_Scon_DRRR, 326.9, incorrect, 1, 1
761, 6, T_Sinc, T_Sinc_DGLG, 322.4, hit, 1, 0
762, 6, T_Sinc, T_Sinc_URRR, 333.9, hit, 2, 0
763, 6, T_Scon, T_Scon_DRRR, 305.3, hit, 2, 0
764, 6, T_Sinc, T_Sinc_DGLG, 412.7, hit, 1, 0
765, 6, T_Scon, T_Scon_DRRR, 348.2, hit, 2, 0
766, 6, T_Sinc, T_Sinc_DGLG, 343.7, hit, 1, 0
767, 6, T_Sinc, T_Sinc_DGLG, 307.0, hit, 1, 0
768, 6, T_Sinc, T_Sinc_URRR, 318.5, hit, 2, 0
769, 6, T_Scon, T_Scon_DRRR, 241.9, hit, 2, 0
770, 6, T_Sinc, T_Sinc_URRR, 329.3, hit, 2, 0
771, 6, T_Scon, T_Scon_UGLG, 340.8, hit, 1, 0
772, 6, T_Scon, T_Scon_DRRR, 320.2, hit, 2, 0
773, 6, T_Sinc, T_Sinc_URRR, 387.6, hit, 2, 0
774, 6, T_Scon, T_Scon_UGLG, 315.1, hit, 1, 0
775, 6, T_Sinc, T_Sinc_URRR, 382.5, hit, 2, 0
776, 6, T_Sinc, T_Sinc_URRR, 290.0, hit, 2, 0
777, 6, T_Sinc, T_Sinc_URRR, 301.4, hit, 2, 0
778, 6, T_Scon, T_Scon_UGLG, 344.8, hit, 1, 0
779, 6, T_Scon, T_Scon_UGLG, 316.3, hit, 1, 0
780, 6, T_Scon, T_Scon_UGLG, 255.8, hit, 1, 0
781, 6, T_Scon, T_Scon_DRRR, 371.1, hit, 2, 0
782, 6, T_Sinc, T_Sinc_DGLG, 310.6, hit, 1, 0
783, 6, T_Scon, T_Scon_DRRR, 326.0, hit, 2, 0
784, 6, T_Sinc, T_Sinc_DGLG, 357.5, hit, 1, 0
785, 6, T_Sinc, T_Sinc_URRR, 392.9, hit, 2, 0
786, 6, T_Sinc, T_Sinc_URRR, 284.4, hit, 2, 0
787, 6, T_Scon, T_Scon_UGLG, 351.8, incorrect, 2, 1
788, 6, T_Sinc, T_Sinc_URRR, 275.2, hit, 2, 0
789, 6, T_Sinc, T_Sinc_URRR, 334.6, hit, 2, 0
790, 6, T_Sinc, T_Sinc_DGLG, 338.1, hit, 1, 0
791, 6, T_Scon, T_Scon_DRRR, 349.6, hit, 2, 0
792, 6, T_Scon, T_Scon_DRRR, 429.0, incorrect, 1, 1
793, 6, T_Scon, T_Scon_UGLG, 448.2, hit, 1, 0
794, 6, T_Sinc, T_Sinc_DGLG, 323.6, hit, 1, 0
795, 6, T_Sinc, T_Sinc_DGLG, 294.9, hit, 1, 0
796, 6, T_Sinc, T_Sinc_URRR, 278.4, hit, 2, 0
797, 6, T_Sinc, T_Sinc_URRR, 281.8, hit, 2, 0
798, 6, T_Scon, T_Scon_DRRR, 293.3, hit, 2, 0
799, 6, T_Sinc, T_Sinc_DGLG, 316.7, hit, 1, 0
800, 6, T_Sinc, T_Sinc_DGLG, 324.2, hit, 1, 0
801, 6, T_Scon, T_Scon_DRRR, 331.6, hit, 2, 0
802, 6, T_Scon, T_Scon_UGLG, 339.0, incorrect, 2, 1
803, 6, T_Sinc, T_Sinc_URRR, 358.5, hit, 2, 0
804, 6, T_Scon, T_Scon_UGLG, 301.9, hit, 1, 0
805, 6, T_Sinc, T_Sinc_DGLG, 345.4, hit, 1, 0
806, 6, T_Sinc, T_Sinc_DGLG, 264.8, hit, 1, 0
807, 6, T_Sinc, T_Sinc_DGLG, 268.2, hit, 1, 0
808, 6, T_Scon, T_Scon_DRRR, 319.7, hit, 2, 0
809, 6, T_Sinc, T_Sinc_URRR, 355.0, hit, 2, 0
810, 6, T_Sinc, T_Sinc_URRR, 318.5, hit, 2, 0
811, 6, T_Scon, T_Scon_DRRR, 382.0, hit, 2, 0
812, 6, T_Sinc, T_Sinc_DGLG, 353.4, hit, 1, 0
813, 6, T_Scon, T_Scon_DRRR, 340.8, hit, 2, 0
814, 6, T_Sinc, T_Sinc_DGLG, 316.3, hit, 1, 0
815, 6, T_Sinc, T_Sinc_URRR, 375.7, hit, 2, 0
816, 6, T_Scon, T_Scon_DRRR, 307.1, incorrect, 1, 1
817, 6, T_Sinc, T_Sinc_DGLG, 286.6, hit, 1, 0
818, 6, T_Sinc, T_Sinc_URRR, 494.0, hit, 2, 0
819, 6, T_Scon, T_Scon_DRRR, 313.5, hit, 2, 0
820, 6, T_Scon, T_Scon_UGLG, 320.9, hit, 1, 0
821, 6, T_Sinc, T_Sinc_DGLG, 252.3, hit, 1, 0
822, 6, T_Sinc, T_Sinc_DGLG, 311.8, hit, 1, 0
823, 6, T_Sinc, T_Sinc_URRR, 331.2, hit, 2, 0
824, 6, T_Sinc, T_Sinc_URRR, 294.6, hit, 2, 0
825, 6, T_Sinc, T_Sinc_DGLG, 378.1, hit, 1, 0
826, 6, T_Sinc, T_Sinc_DGLG, 309.6, hit, 1, 0
827, 6, T_Scon, T_Scon_DRRR, 376.9, hit, 2, 0
828, 6, T_Scon, T_Scon_UGLG, 364.4, incorrect, 2, 1
829, 6, T_Sinc, T_Sinc_URRR, 451.5, hit, 2, 0
830, 6, T_Scon, T_Scon_DRRR, 314.9, hit, 2, 0
831, 6, T_Scon, T_Scon_UGLG, 286.4, hit, 1, 0
832, 6, T_Sinc, T_Sinc_URRR, 325.9, hit, 2, 0
833, 6, T_Scon, T_Scon_DRRR, 317.2, hit, 2, 0
834, 6, T_Scon, T_Scon_DRRR, 316.7, hit, 2, 0
835, 6, T_Sinc, T_Sinc_URRR, 240.2, hit, 2, 0
836, 6, T_Sinc, T_Sinc_DGLG, 287.6, hit, 1, 0
837, 6, T_Scon, T_Scon_UGLG, 463.0, hit, 1, 0
838, 6, T_Scon, T_Scon_UGLG, 298.5, hit, 1, 0
839, 6, T_Scon, T_Scon_DRRR, 333.9, hit, 2, 0
840, 6, T_Scon, T_Scon_UGLG, 329.3, hit, 1, 0
841, 6, T_Scon, T_Scon_UGLG, 228.7, hit, 1, 0
842, 6, T_Sinc, T_Sinc_URRR, 332.2, hit, 2, 0
843, 6, T_Scon, T_Scon_UGLG, 463.7, hit, 1, 0
844, 6, T_Scon, T_Scon_UGLG, 259.0, hit, 1, 0
845, 6, T_Scon, T_Scon_DRRR, 354.5, hit, 2, 0
846, 6, T_Scon, T_Scon_DRRR, 318.0, hit, 2, 0
847, 6, T_Scon, T_Scon_UGLG, 313.3, hit, 1, 0
848, 6, T_Sinc, T_Sinc_URRR, 292.8, incorrect, 1, 1
849, 6, T_Scon, T_Scon_DRRR, 392.3, hit, 2, 0
850, 6, T_Scon, T_Scon_UGLG, 315.7, hit, 1, 0
851, 6, T_Scon, T_Scon_DRRR, 299.1, hit, 2, 0
852, 6, T_Scon, T_Scon_DRRR, 282.6, hit, 2, 0
853, 6, T_Sinc, T_Sinc_URRR, 294.0, hit, 2, 0
854, 6, T_Scon, T_Scon_DRRR, 273.5, hit, 2, 0
855, 6, T_Sinc, T_Sinc_URRR, 324.8, hit, 2, 0
856, 6, T_Scon, T_Scon_DRRR, 300.3, hit, 2, 0
857, 6, T_Sinc, T_Sinc_DGLG, 223.8, hit, 1, 0
858, 6, T_Scon, T_Scon_DRRR, 287.1, hit, 2, 0
859, 6, T_Sinc, T_Sinc_URRR, 398.6, hit, 2, 0
860, 6, T_Scon, T_Scon_UGLG, 342.1, hit, 1, 0
861, 6, T_Sinc, T_Sinc_DGLG, 337.5, hit, 1, 0
862, 6, T_Scon, T_Scon_UGLG, 292.9, hit, 1, 0
863, 6, T_Scon, T_Scon_UGLG, 236.4, hit, 1, 0
864, 6, T_Sinc, T_Sinc_DGLG, 335.8, hit, 1, 0
865, 7, T_Scon, T_Scon_DRRR, 493.6, hit, 2, 0
866, 7, T_Sinc, T_Sinc_URRR, 336.9, hit, 2, 0
867, 7, T_Scon, T_Scon_DRRR, 224.4, hit, 2, 0
868, 7, T_Scon, T_Scon_DRRR, 251.8, hit, 2, 0
869, 7, T_Scon, T_Scon_UGLG, 231.3, hit, 1, 0
870, 7, T_Scon, T_Scon_DRRR, 394.7, hit, 2, 0
871, 7, T_Sinc, T_Sinc_URRR, 270.1, hit, 2, 0
872, 7, T_Scon, T_Scon_DRRR, 249.6, hit, 2, 0
873, 7, T_Scon, T_Scon_DRRR, 284.9, hit, 2, 0
874, 7, T_Sinc, T_Sinc_DGLG, 240.4, hit, 1, 0
875, 7, T_Sinc, T_Sinc_URRR, 331.8, hit, 2, 0
876, 7, T_Sinc, T_Sinc_URRR, 311.3, hit, 2, 0
877, 7, T_Sinc, T_Sinc_DGLG, 338.7, hit, 1, 0
878, 7, T_Scon, T_Scon_UGLG, 286.1, hit, 1, 0
879, 7, T_Scon, T_Scon_UGLG, 289.6, hit, 1, 0
880, 7, T_Sinc, T_Sinc_URRR, 381.1, hit, 2, 0
881, 7, T_Scon, T_Scon_UGLG, 296.5, hit, 1, 0
882, 7, T_Scon, T_Scon_UGLG, 331.9, hit, 1, 0
883, 7, T_Scon, T_Scon_DRRR, 335.4, hit, 2, 0
884, 7, T_Scon, T_Scon_UGLG, 210.8, hit, 1, 0
885, 7, T_Sinc, T_Sinc_DGLG, 254.2, hit, 1, 0
886, 7, T_Sinc, T_Sinc_DGLG, 321.7, hit, 1, 0
887, 7, T_Sinc, T_Sinc_URRR, 333.1, hit, 2, 0
888, 7, T_Sinc, T_Sinc_DGLG, 300.5, hit, 1, 0
889, 7, T_Sinc, T_Sinc_DGLG, 332.0, hit, 1, 0
890, 7, T_Scon, T_Scon_DRRR, 331.4, hit, 2, 0
891, 7, T_Scon, T_Scon_DRRR, 422.9, hit, 2, 0
892, 7, T_Scon, T_Scon_DRRR, 274.3, hit, 2, 0
893, 7, T_Scon, T_Scon_UGLG, 309.7, hit, 1, 0
894, 7, T_Sinc, T_Sinc_DGLG, 289.2, hit, 1, 0
895, 7, T_Sinc, T_Sinc_URRR, 332.6, hit, 2, 0
896, 7, T_Scon, T_Scon_UGLG, 332.0, hit, 1, 0
897, 7, T_Scon, T_Scon_DRRR, 327.5, hit, 2, 0
898, 7, T_Scon, T_Scon_DRRR, 386.9, hit, 2, 0
899, 7, T_Scon, T_Scon_DRRR, 262.4, hit, 2, 0
900, 7, T_Scon, T_Scon_UGLG, 325.8, hit, 1, 0
901, 7, T_Sinc, T_Sinc_DGLG, 329.0, hit, 1, 0
902, 7, T_Scon, T_Scon_DRRR, 204.4, incorrect, 1, 1
903, 7, T_Scon, T_Scon_DRRR, 283.8, hit, 2, 0
904, 7, T_Sinc, T_Sinc_DGLG, 243.3, hit, 1, 0
905, 7, T_Scon, T_Scon_UGLG, 318.7, hit, 1, 0
906, 7, T_Scon, T_Scon_DRRR, 250.2, hit, 2, 0
907, 7, T_Sinc, T_Sinc_DGLG, 313.5, hit, 1, 0
908, 7, T_Sinc, T_Sinc_URRR, 305.0, hit, 2, 0
909, 7, T_Sinc, T_Sinc_URRR, 320.5, hit, 2, 0
910, 7, T_Scon, T_Scon_UGLG, 331.8, hit, 1, 0
911, 7, T_Sinc, T_Sinc_DGLG, 311.3, hit, 1, 0
912, 7, T_Scon, T_Scon_UGLG, 354.8, hit, 1, 0
913, 7, T_Scon, T_Scon_UGLG, 286.1, hit, 1, 0
914, 7, T_Sinc, T_Sinc_DGLG, 329.6, hit, 1, 0
915, 7, T_Scon, T_Scon_DRRR, 357.1, hit, 2, 0
916, 7, T_Scon, T_Scon_DRRR, 312.4, hit, 2, 0
917, 7, T_Sinc, T_Sinc_URRR, 347.9, incorrect, 1, 1
918, 7, T_Sinc, T_Sinc_DGLG, 359.4, hit, 1, 0
919, 7, T_Sinc, T_Sinc_URRR, 302.7, hit, 2, 0
920, 7, T_Sinc, T_Sinc_URRR, 322.2, hit, 2, 0
921, 7, T_Scon, T_Scon_UGLG, 321.7, hit, 1, 0
922, 7, T_Sinc, T_Sinc_URRR, 321.1, hit, 2, 0
923, 7, T_Sinc, T_Sinc_DGLG, 320.5, hit, 1, 0
924, 7, T_Sinc, T_Sinc_DGLG, 284.0, hit, 1, 0
925, 7, T_Sinc, T_Sinc_DGLG, 287.4, hit, 1, 0
926, 7, T_Sinc, T_Sinc_URRR, 346.8, hit, 2, 0
927, 7, T_Scon, T_Scon_DRRR, 322.2, hit, 2, 0
928, 7, T_Scon, T_Scon_UGLG, 301.7, hit, 1, 0
929, 7, T_Scon, T_Scon_UGLG, 373.1, hit, 1, 0
930, 7, T_Scon, T_Scon_DRRR, 360.5, hit, 2, 0
931, 7, T_Scon, T_Scon_UGLG, 292.0, hit, 1, 0
932, 7, T_Sinc, T_Sinc_DGLG, 395.5, hit, 1, 0
933, 7, T_Scon, T_Scon_DRRR, 350.8, hit, 2, 0
934, 7, T_Scon, T_Scon_UGLG, 266.3, hit, 1, 0
935, 7, T_Sinc, T_Sinc_DGLG, 269.8, hit, 1, 0
936, 7, T_Scon, T_Scon_UGLG, 281.2, hit, 1, 0
937, 7, T_Sinc, T_Sinc_URRR, 440.4, hit, 2, 0
938, 7, T_Sinc, T_Sinc_DGLG, 367.8, hit, 1, 0
939, 7, T_Sinc, T_Sinc_URRR, 275.3, hit, 2, 0
940, 7, T_Sinc, T_Sinc_URRR, 286.6, hit, 2, 0
941, 7, T_Scon, T_Scon_UGLG, 366.1, hit, 1, 0
942, 7, T_Scon, T_Scon_UGLG, 265.5, hit, 1, 0
943, 7, T_Sinc, T_Sinc_DGLG, 301.0, hit, 1, 0
944, 7, T_Scon, T_Scon_DRRR, 388.4, hit, 2, 0
945, 7, T_Scon, T_Scon_UGLG, 335.8, hit, 1, 0
946, 7, T_Scon, T_Scon_UGLG, 291.3, hit, 1, 0
947, 7, T_Sinc, T_Sinc_DGLG, 286.7, hit, 1, 0
948, 7, T_Scon, T_Scon_DRRR, 326.1, hit, 2, 0
949, 7, T_Scon, T_Scon_DRRR, 337.6, hit, 2, 0
950, 7, T_Scon, T_Scon_DRRR, 341.0, hit, 2, 0
951, 7, T_Scon, T_Scon_UGLG, 360.4, hit, 1, 0
952, 7, T_Sinc, T_Sinc_DGLG, 283.9, hit, 1, 0
953, 7, T_Sinc, T_Sinc_URRR, 331.3, hit, 2, 0
954, 7, T_Sinc, T_Sinc_URRR, 334.7, hit, 2, 0
955, 7, T_Sinc, T_Sinc_URRR, 306.2, hit, 2, 0
956, 7, T_Scon, T_Scon_DRRR, 349.6, hit, 2, 0
957, 7, T_Sinc, T_Sinc_URRR, 297.1, hit, 2, 0
958, 7, T_Sinc, T_Sinc_URRR, 300.6, hit, 2, 0
959, 7, T_Sinc, T_Sinc_DGLG, 351.9, hit, 1, 0
960, 7, T_Scon, T_Scon_DRRR, 375.4, hit, 2, 0
961, 7, T_Sinc, T_Sinc_DGLG, 322.9, hit, 1, 0
962, 7, T_Sinc, T_Sinc_DGLG, 342.3, hit, 1, 0
963, 7, T_Sinc, T_Sinc_URRR, 345.7, hit, 2, 0
964, 7, T_Scon, T_Scon_DRRR, 289.2, hit, 2, 0
965, 7, T_Scon, T_Scon_DRRR, 256.6, hit, 2, 0
966, 7, T_Sinc, T_Sinc_URRR, 252.1, hit, 2, 0
967, 7, T_Sinc, T_Sinc_URRR, 255.4, hit, 2, 0
968, 7, T_Scon, T_Scon_UGLG, 382.9, hit, 1, 0
969, 7, T_Scon, T_Scon_UGLG, 338.4, hit, 1, 0
970, 7, T_Scon, T_Scon_DRRR, 417.7, hit, 2, 0
971, 7, T_Scon, T_Scon_DRRR, 361.2, hit, 2, 0
972, 7, T_Sinc, T_Sinc_DGLG, 344.7, hit, 1, 0
973, 7, T_Scon, T_Scon_UGLG, 419.8, hit, 1, 0
974, 7, T_Sinc, T_Sinc_URRR, 339.2, hit, 2, 0
975, 7, T_Sinc, T_Sinc_URRR, 274.7, hit, 2, 0
976, 7, T_Sinc, T_Sinc_DGLG, 294.1, hit, 1, 0
977, 7, T_Sinc, T_Sinc_URRR, 393.5, hit, 2, 0
978, 7, T_Scon, T_Scon_DRRR, 305.0, hit, 2, 0
979, 7, T_Scon, T_Scon_UGLG, 324.4, hit, 1, 0
980, 7, T_Sinc, T_Sinc_URRR, 327.8, hit, 2, 0
981, 7, T_Scon, T_Scon_UGLG, 235.3, incorrect, 2, 1
982, 7, T_Scon, T_Scon_UGLG, 342.8, hit, 1, 0
983, 7, T_Scon, T_Scon_DRRR, 326.1, hit, 2, 0
984, 7, T_Sinc, T_Sinc_DGLG, 405.6, hit, 1, 0
985, 7, T_Sinc, T_Sinc_URRR, 313.0, hit, 2, 0
986, 7, T_Sinc, T_Sinc_DGLG, 304.5, hit, 1, 0
987, 7, T_Sinc, T_Sinc_DGLG, 347.9, hit, 1, 0
988, 7, T_Sinc, T_Sinc_URRR, 527.3, hit, 2, 2
989, 7, T_Scon, T_Scon_UGLG, 302.8, hit, 1, 0
990, 7, T_Scon, T_Scon_UGLG, 282.2, hit, 1, 0
991, 7, T_Sinc, T_Sinc_DGLG, 337.6, hit, 1, 0
992, 7, T_Scon, T_Scon_UGLG, 317.1, hit, 1, 0
993, 7, T_Scon, T_Scon_UGLG, 264.5, hit, 1, 0
994, 7, T_Sinc, T_Sinc_URRR, 327.9, hit, 2, 0
995, 7, T_Scon, T_Scon_UGLG, 323.4, hit, 1, 0
996, 7, T_Sinc, T_Sinc_URRR, 398.8, hit, 2, 0
997, 7, T_Scon, T_Scon_DRRR, 482.2, hit, 2, 0
998, 7, T_Scon, T_Scon_DRRR, 345.7, hit, 2, 0
999, 7, T_Sinc, T_Sinc_DGLG, 325.1, hit, 1, 0
1000, 7, T_Scon, T_Scon_DRRR, 328.6, hit, 2, 0
1001, 7, T_Sinc, T_Sinc_DGLG, 364.0, hit, 1, 0
1002, 7, T_Sinc, T_Sinc_URRR, 323.5, hit, 2, 0
1003, 7, T_Scon, T_Scon_UGLG, 286.9, hit, 1, 0
1004, 7, T_Sinc, T_Sinc_URRR, 270.3, hit, 2, 0
1005, 7, T_Sinc, T_Sinc_DGLG, 329.7, hit, 1, 0
1006, 7, T_Sinc, T_Sinc_DGLG, 337.2, hit, 1, 0
1007, 7, T_Sinc, T_Sinc_URRR, 304.7, hit, 2, 0
1008, 7, T_Sinc, T_Sinc_DGLG, 432.0, hit, 1, 0
1009, 8, T_Sinc, T_Sinc_URRR, 412.4, hit, 2, 0
1010, 8, T_Scon, T_Scon_UGLG, 291.9, hit, 1, 0
1011, 8, T_Sinc, T_Sinc_URRR, 319.3, hit, 2, 0
1012, 8, T_Sinc, T_Sinc_DGLG, 314.7, hit, 1, 0
1013, 8, T_Scon, T_Scon_UGLG, 286.1, hit, 1, 0
1014, 8, T_Scon, T_Scon_DRRR, 393.6, hit, 2, 0
1015, 8, T_Scon, T_Scon_UGLG, 333.1, hit, 1, 0
1016, 8, T_Scon, T_Scon_UGLG, 276.4, hit, 1, 0
1017, 8, T_Sinc, T_Sinc_DGLG, 303.9, hit, 1, 0
1018, 8, T_Sinc, T_Sinc_DGLG, 307.4, hit, 1, 0
1019, 8, T_Scon, T_Scon_UGLG, 254.8, hit, 1, 0
1020, 8, T_Sinc, T_Sinc_URRR, 322.3, hit, 2, 0
1021, 8, T_Sinc, T_Sinc_URRR, 301.6, hit, 2, 0
1022, 8, T_Sinc, T_Sinc_DGLG, 277.1, hit, 1, 0
1023, 8, T_Sinc, T_Sinc_DGLG, 232.6, hit, 1, 0
1024, 8, T_Sinc, T_Sinc_URRR, 220.0, hit, 2, 0
1025, 8, T_Sinc, T_Sinc_URRR, 327.4, hit, 2, 0
1026, 8, T_Sinc, T_Sinc_DGLG, 362.9, hit, 1, 0
1027, 8, T_Scon, T_Scon_UGLG, 286.3, hit, 1, 0
1028, 8, T_Scon, T_Scon_UGLG, 305.7, hit, 1, 0
1029, 8, T_Scon, T_Scon_UGLG, 213.2, hit, 1, 0
1030, 8, T_Scon, T_Scon_UGLG, 252.6, hit, 1, 0
1031, 8, T_Scon, T_Scon_DRRR, 336.1, hit, 2, 0
1032, 8, T_Sinc, T_Sinc_URRR, 303.4, hit, 2, 0
1033, 8, T_Sinc, T_Sinc_URRR, 282.9, hit, 2, 0
1034, 8, T_Scon, T_Scon_UGLG, 302.4, hit, 1, 0
1035, 8, T_Sinc, T_Sinc_DGLG, 357.8, hit, 1, 0
1036, 8, T_Sinc, T_Sinc_DGLG, 369.2, hit, 1, 0
1037, 8, T_Sinc, T_Sinc_DGLG, 364.7, hit, 1, 0
1038, 8, T_Sinc, T_Sinc_DGLG, 408.1, hit, 1, 0
1039, 8, T_Scon, T_Scon_UGLG, 283.6, hit, 1, 0
1040, 8, T_Scon, T_Scon_UGLG, 267.0, hit, 1, 0
1041, 8, T_Sinc, T_Sinc_DGLG, 318.4, hit, 1, 0
1042, 8, T_Sinc, T_Sinc_URRR, 385.9, hit, 2, 0
1043, 8, T_Scon, T_Scon_DRRR, 349.3, hit, 2, 0
1044, 8, T_Sinc, T_Sinc_URRR, 416.7, hit, 2, 0
1045, 8, T_Sinc, T_Sinc_DGLG, 408.0, hit, 1, 0
1046, 8, T_Scon, T_Scon_UGLG, 291.3, hit, 1, 0
1047, 8, T_Sinc, T_Sinc_DGLG, 274.8, hit, 1, 0
1048, 8, T_Sinc, T_Sinc_URRR, 322.2, hit, 2, 0
1049, 8, T_Scon, T_Scon_DRRR, 365.7, hit, 2, 0
1050, 8, T_Scon, T_Scon_DRRR, 329.0, hit, 2, 0
1051, 8, T_Sinc, T_Sinc_URRR, 244.5, hit, 2, 0
1052, 8, T_Scon, T_Scon_DRRR, 304.0, hit, 2, 0
1053, 8, T_Scon, T_Scon_UGLG, 355.3, hit, 1, 0
1054, 8, T_Sinc, T_Sinc_DGLG, 370.8, hit, 1, 0
1055, 8, T_Sinc, T_Sinc_DGLG, 234.3, hit, 1, 0
1056, 8, T_Scon, T_Scon_UGLG, 253.7, hit, 1, 0
1057, 8, T_Sinc, T_Sinc_DGLG, 313.1, hit, 1, 0
1058, 8, T_Sinc, T_Sinc_DGLG, 300.6, hit, 1, 0
1059, 8, T_Scon, T_Scon_UGLG, 196.0, hit, 1, 0
1060, 8, T_Sinc, T_Sinc_URRR, 383.4, hit, 2, 0
1061, 8, T_Scon, T_Scon_DRRR, 378.8, hit, 2, 0
1062, 8, T_Sinc, T_Sinc_URRR, 354.3, hit, 2, 0
1063, 8, T_Scon, T_Scon_DRRR, 325.8, hit, 2, 0
1064, 8, T_Scon, T_Scon_DRRR, 345.1, hit, 2, 0
1065, 8, T_Scon, T_Scon_DRRR, 272.6, hit, 2, 0
1066, 8, T_Sinc, T_Sinc_URRR, 204.1, hit, 2, 0
1067, 8, T_Sinc, T_Sinc_URRR, 255.4, hit, 2, 0
1068, 8, T_Scon, T_Scon_DRRR, 290.9, hit, 2, 0
1069, 8, T_Sinc, T_Sinc_URRR, 302.4, hit, 2, 0
1070, 8, T_Scon, T_Scon_UGLG, 469.7, hit, 1, 0
1071, 8, T_Sinc, T_Sinc_DGLG, 321.2, hit, 1, 0
1072, 8, T_Scon, T_Scon_DRRR, 348.7, hit, 2, 0
1073, 8, T_Scon, T_Scon_DRRR, 380.0, hit, 2, 0
1074, 8, T_Scon, T_Scon_UGLG, 271.5, hit, 1, 0
1075, 8, T_Sinc, T_Sinc_URRR, 355.0, hit, 2, 0
1076, 8, T_Scon, T_Scon_DRRR, 394.4, incorrect, 1, 1
1077, 8, T_Scon, T_Scon_UGLG, 221.8, hit, 1, 0
1078, 8, T_Scon, T_Scon_UGLG, 265.3, hit, 1, 0
1079, 8, T_Scon, T_Scon_UGLG, 228.7, hit, 1, 0
1080, 8, T_Sinc, T_Sinc_URRR, 328.2, hit, 2, 0
1081, 8, T_Sinc, T_Sinc_URRR, 399.3, hit, 2, 0
1082, 8, T_Sinc, T_Sinc_URRR, 318.7, hit, 2, 0
1083, 8, T_Scon, T_Scon_DRRR, 290.2, hit, 2, 0
1084, 8, T_Sinc, T_Sinc_URRR, 245.6, hit, 2, 0
1085, 8, T_Sinc, T_Sinc_DGLG, 293.0, hit, 1, 0
1086, 8, T_Scon, T_Scon_DRRR, 276.5, incorrect, 1, 1
1087, 8, T_Scon, T_Scon_UGLG, 323.9, hit, 1, 0
1088, 8, T_Sinc, T_Sinc_URRR, 299.3, hit, 2, 0
1089, 8, T_Sinc, T_Sinc_DGLG, 310.8, hit, 1, 0
1090, 8, T_Scon, T_Scon_DRRR, 346.3, hit, 2, 0
1091, 8, T_Sinc, T_Sinc_DGLG, 289.6, hit, 1, 0
1092, 8, T_Scon, T_Scon_UGLG, 317.1, hit, 1, 0
1093, 8, T_Sinc, T_Sinc_DGLG, 288.6, hit, 1, 0
1094, 8, T_Sinc, T_Sinc_DGLG, 328.0, hit, 1, 0
1095, 8, T_Sinc, T_Sinc_URRR, 275.4, hit, 2, 0
1096, 8, T_Scon, T_Scon_DRRR, 342.8, hit, 2, 0
1097, 8, T_Sinc, T_Sinc_DGLG, 438.3, hit, 1, 0
1098, 8, T_Scon, T_Scon_DRRR, 377.7, hit, 2, 0
1099, 8, T_Scon, T_Scon_UGLG, 353.1, hit, 1, 0
1100, 8, T_Scon, T_Scon_DRRR, 404.6, hit, 2, 0
1101, 8, T_Scon, T_Scon_DRRR, 280.0, hit, 2, 0
1102, 8, T_Sinc, T_Sinc_DGLG, 339.4, hit, 1, 0
1103, 8, T_Scon, T_Scon_DRRR, 330.9, hit, 2, 0
1104, 8, T_Scon, T_Scon_UGLG, 334.4, incorrect, 2, 1
1105, 8, T_Scon, T_Scon_DRRR, 285.8, hit, 2, 0
1106, 8, T_Scon, T_Scon_DRRR, 369.2, hit, 2, 0
1107, 8, T_Scon, T_Scon_UGLG, 344.6, hit, 1, 0
1108, 8, T_Sinc, T_Sinc_DGLG, 228.1, hit, 1, 0
1109, 8, T_Scon, T_Scon_DRRR, 343.6, hit, 2, 0
1110, 8, T_Sinc, T_Sinc_URRR, 310.9, hit, 2, 0
1111, 8, T_Scon, T_Scon_DRRR, 234.4, hit, 2, 0
1112, 8, T_Scon, T_Scon_DRRR, 265.8, hit, 2, 0
1113, 8, T_Scon, T_Scon_UGLG, 365.2, hit, 1, 0
1114, 8, T_Sinc, T_Sinc_URRR, 312.7, hit, 2, 0
1115, 8, T_Sinc, T_Sinc_DGLG, 364.2, hit, 1, 0
1116, 8, T_Sinc, T_Sinc_DGLG, 291.5, incorrect, 2, 1
1117, 8, T_Sinc, T_Sinc_DGLG, 482.8, hit, 1, 0
1118, 8, T_Sinc, T_Sinc_URRR, 302.2, hit, 2, 0
1119, 8, T_Scon, T_Scon_UGLG, 401.6, hit, 1, 0
1120, 8, T_Sinc, T_Sinc_URRR, 277.0, hit, 2, 0
1121, 8, T_Sinc, T_Sinc_URRR, 228.5, hit, 2, 0
1122, 8, T_Scon, T_Scon_DRRR, 204.0, hit, 2, 0
1123, 8, T_Sinc, T_Sinc_DGLG, 287.3, hit, 1, 0
1124, 8, T_Sinc, T_Sinc_URRR, 258.8, incorrect, 1, 1
1125, 8, T_Scon, T_Scon_UGLG, 362.2, hit, 1, 0
1126, 8, T_Scon, T_Scon_UGLG, 373.7, hit, 1, 0
1127, 8, T_Sinc, T_Sinc_URRR, 213.1, incorrect, 1, 1
1128, 8, T_Sinc, T_Sinc_URRR, 316.5, hit, 2, 0
1129, 8, T_Sinc, T_Sinc_DGLG, 356.0, hit, 1, 0
1130, 8, T_Sinc, T_Sinc_DGLG, 327.4, hit, 1, 0
1131, 8, T_Scon, T_Scon_UGLG, 234.8, incorrect, 2, 1
1132, 8, T_Scon, T_Scon_DRRR, 298.3, hit, 2, 0
1133, 8, T_Scon, T_Scon_UGLG, 297.8, hit, 1, 0
1134, 8, T_Sinc, T_Sinc_URRR, 241.1, incorrect, 1, 1
1135, 8, T_Sinc, T_Sinc_DGLG, 340.6, hit, 1, 0
1136, 8, T_Scon, T_Scon_DRRR, 308.0, incorrect, 1, 1
1137, 8, T_Sinc, T_Sinc_URRR, 383.4, hit, 2, 0
1138, 8, T_Scon, T_Scon_DRRR, 370.9, hit, 2, 0
1139, 8, T_Scon, T_Scon_DRRR, 358.4, hit, 2, 0
1140, 8, T_Scon, T_Scon_DRRR, 321.7, hit, 2, 0
1141, 8, T_Sinc, T_Sinc_URRR, 293.2, hit, 2, 0
1142, 8, T_Sinc, T_Sinc_DGLG, 388.6, hit, 1, 0
1143, 8, T_Sinc, T_Sinc_DGLG, 552.1, hit, 1, 2
1144, 8, T_Scon, T_Scon_DRRR, 335.6, hit, 2, 0
1145, 8, T_Sinc, T_Sinc_DGLG, 398.9, hit, 1, 0
1146, 8, T_Scon, T_Scon_UGLG, 322.4, hit, 1, 0
1147, 8, T_Scon, T_Scon_DRRR, 345.9, hit, 2, 0
1148, 8, T_Scon, T_Scon_UGLG, 485.2, hit, 1, 0
1149, 8, T_Scon, T_Scon_UGLG, 328.7, hit, 1, 0
1150, 8, T_Scon, T_Scon_UGLG, 300.2, hit, 1, 0
1151, 8, T_Scon, T_Scon_DRRR, 427.6, hit, 2, 0
1152, 8, T_Sinc, T_Sinc_URRR, 339.0, hit, 2, 0
1153, 9, T_Scon, T_Scon_DRRR, 425.5, hit, 2, 0
1154, 9, T_Scon, T_Scon_UGLG, 313.0, hit, 1, 0
1155, 9, T_Sinc, T_Sinc_URRR, 388.4, hit, 2, 0
1156, 9, T_Scon, T_Scon_UGLG, 303.7, hit, 1, 0
1157, 9, T_Sinc, T_Sinc_URRR, 347.2, hit, 2, 0
1158, 9, T_Sinc, T_Sinc_DGLG, 294.7, hit, 1, 0
1159, 9, T_Scon, T_Scon_DRRR, 322.0, hit, 2, 0
1160, 9, T_Scon, T_Scon_DRRR, 213.5, hit, 2, 0
1161, 9, T_Sinc, T_Sinc_DGLG, 357.0, hit, 1, 0
1162, 9, T_Scon, T_Scon_UGLG, 248.4, hit, 1, 0
1163, 9, T_Scon, T_Scon_DRRR, 355.9, hit, 2, 0
1164, 9, T_Scon, T_Scon_DRRR, 331.3, hit, 2, 0
1165, 9, T_Scon, T_Scon_UGLG, 314.7, hit, 1, 0
1166, 9, T_Sinc, T_Sinc_URRR, 350.2, hit, 2, 0
1167, 9, T_Sinc, T_Sinc_URRR, 345.5, incorrect, 1, 1
1168, 9, T_Scon, T_Scon_UGLG, 293.0, hit, 1, 0
1169, 9, T_Scon, T_Scon_UGLG, 264.5, hit, 1, 0
1170, 9, T_Sinc, T_Sinc_DGLG, 355.9, hit, 1, 0
1171, 9, T_Sinc, T_Sinc_DGLG, 287.3, hit, 1, 0
1172, 9, T_Sinc, T_Sinc_URRR, 306.8, hit, 2, 0
1173, 9, T_Sinc, T_Sinc_DGLG, 458.2, hit, 1, 0
1174, 9, T_Scon, T_Scon_UGLG, 313.6, hit, 1, 0
1175, 9, T_Scon, T_Scon_UGLG, 261.1, hit, 1, 0
1176, 9, T_Scon, T_Scon_DRRR, 344.6, hit, 2, 0
1177, 9, T_Sinc, T_Sinc_DGLG, 448.0, hit, 1, 0
1178, 9, T_Sinc, T_Sinc_URRR, 371.4, hit, 2, 0
1179, 9, T_Scon, T_Scon_DRRR, 350.8, hit, 2, 0
1180, 9, T_Sinc, T_Sinc_DGLG, 294.3, hit, 1, 0
1181, 9, T_Scon, T_Scon_UGLG, 305.7, hit, 1, 0
1182, 9, T_Scon, T_Scon_UGLG, 341.1, hit, 1, 0
1183, 9, T_Sinc, T_Sinc_URRR, 296.6, incorrect, 1, 1
1184, 9, T_Scon, T_Scon_UGLG, 324.0, hit, 1, 0
1185, 9, T_Sinc, T_Sinc_URRR, 363.4, hit, 2, 0
1186, 9, T_Sinc, T_Sinc_DGLG, 302.9, hit, 1, 0
1187, 9, T_Scon, T_Scon_DRRR, 414.3, hit, 2, 0
1188, 9, T_Sinc, T_Sinc_URRR, 361.8, hit, 2, 0
1189, 9, T_Scon, T_Scon_UGLG, 640.9, hit, 1, 2
1190, 9, T_Sinc, T_Sinc_URRR, 320.4, hit, 2, 0
1191, 9, T_Sinc, T_Sinc_DGLG, 359.8, hit, 1, 0
1192, 9, T_Sinc, T_Sinc_URRR, 299.3, hit, 2, 0
1193, 9, T_Scon, T_Scon_UGLG, 294.6, hit, 1, 0
1194, 9, T_Sinc, T_Sinc_DGLG, 378.1, hit, 1, 0
1195, 9, T_Sinc, T_Sinc_DGLG, 317.6, hit, 1, 0
1196, 9, T_Scon, T_Scon_UGLG, 265.0, hit, 1, 0
1197, 9, T_Scon, T_Scon_UGLG, 232.4, hit, 1, 0
1198, 9, T_Sinc, T_Sinc_URRR, 339.9, hit, 2, 0
1199, 9, T_Sinc, T_Sinc_URRR, 267.3, hit, 2, 0
1200, 9, T_Scon, T_Scon_UGLG, 342.7, hit, 1, 0
1201, 9, T_Sinc, T_Sinc_URRR, 338.2, hit, 2, 0
1202, 9, T_Scon, T_Scon_DRRR, 361.6, hit, 2, 0
1203, 9, T_Sinc, T_Sinc_URRR, 309.0, hit, 2, 0
1204, 9, T_Scon, T_Scon_DRRR, 348.5, hit, 2, 0
1205, 9, T_Scon, T_Scon_DRRR, 315.9, hit, 2, 0
1206, 9, T_Sinc, T_Sinc_DGLG, 311.4, hit, 1, 0
1207, 9, T_Sinc, T_Sinc_DGLG, 322.7, hit, 1, 0
1208, 9, T_Sinc, T_Sinc_URRR, 358.2, hit, 2, 0
1209, 9, T_Scon, T_Scon_UGLG, 301.7, hit, 1, 0
1210, 9, T_Scon, T_Scon_DRRR, 341.0, hit, 2, 0
1211, 9, T_Sinc, T_Sinc_URRR, 284.5, hit, 2, 0
1212, 9, T_Scon, T_Scon_UGLG, 404.0, hit, 1, 0
1213, 9, T_Scon, T_Scon_DRRR, 335.4, hit, 2, 0
1214, 9, T_Sinc, T_Sinc_URRR, 314.8, hit, 2, 0
1215, 9, T_Scon, T_Scon_UGLG, 310.3, hit, 1, 0
1216, 9, T_Sinc, T_Sinc_DGLG, 289.7, incorrect, 2, 1
1217, 9, T_Scon, T_Scon_DRRR, 261.2, hit, 2, 0
1218, 9, T_Sinc, T_Sinc_URRR, 312.5, hit, 2, 0
1219, 9, T_Sinc, T_Sinc_DGLG, 388.0, hit, 1, 0
1220, 9, T_Scon, T_Scon_UGLG, 295.5, hit, 1, 0
1221, 9, T_Sinc, T_Sinc_URRR, 370.9, hit, 2, 0
1222, 9, T_Sinc, T_Sinc_DGLG, 406.3, hit, 1, 0
1223, 9, T_Scon, T_Scon_DRRR, 609.8, incorrect, 1, 1
1224, 9, T_Scon, T_Scon_UGLG, 361.2, hit, 1, 0
1225, 9, T_Scon, T_Scon_UGLG, 440.4, hit, 1, 0
1226, 9, T_Scon, T_Scon_DRRR, 347.8, hit, 2, 0
1227, 9, T_Sinc, T_Sinc_URRR, 319.3, hit, 2, 0
1228, 9, T_Scon, T_Scon_UGLG, 418.6, hit, 1, 0
1229, 9, T_Scon, T_Scon_DRRR, 346.1, hit, 2, 0
1230, 9, T_Scon, T_Scon_DRRR, 321.6, hit, 2, 0
1231, 9, T_Sinc, T_Sinc_DGLG, 389.0, hit, 1, 0
1232, 9, T_Sinc, T_Sinc_URRR, 316.4, hit, 2, 0
1233, 9, T_Scon, T_Scon_DRRR, 439.9, hit, 2, 0
1234, 9, T_Sinc, T_Sinc_URRR, 307.3, hit, 2, 0
1235, 9, T_Scon, T_Scon_UGLG, 314.8, hit, 1, 0
1236, 9, T_Sinc, T_Sinc_URRR, 254.1, hit, 2, 0
1237, 9, T_Scon, T_Scon_DRRR, 369.6, hit, 2, 0
1238, 9, T_Sinc, T_Sinc_URRR, 321.1, hit, 2, 0
1239, 9, T_Sinc, T_Sinc_URRR, 276.5, hit, 2, 0
1240, 9, T_Scon, T_Scon_DRRR, 303.9, hit, 2, 0
1241, 9, T_Sinc, T_Sinc_DGLG, 355.4, hit, 1, 0
1242, 9, T_Scon, T_Scon_DRRR, 342.8, hit, 2, 0
1243, 9, T_Sinc, T_Sinc_DGLG, 426.2, hit, 1, 0
1244, 9, T_Scon, T_Scon_DRRR, 421.6, hit, 2, 0
1245, 9, T_Sinc, T_Sinc_URRR, 345.1, hit, 2, 0
1246, 9, T_Scon, T_Scon_DRRR, 284.6, hit, 2, 0
1247, 9, T_Scon, T_Scon_DRRR, 264.0, hit, 2, 0
1248, 9, T_Scon, T_Scon_UGLG, 283.4, hit, 1, 0
1249, 9, T_Scon, T_Scon_DRRR, 274.9, hit, 2, 0
1250, 9, T_Sinc, T_Sinc_URRR, 266.2, hit, 2, 0
1251, 9, T_Sinc, T_Sinc_URRR, 245.7, hit, 2, 0
1252, 9, T_Scon, T_Scon_UGLG, 501.2, hit, 1, 0
1253, 9, T_Sinc, T_Sinc_DGLG, 344.6, hit, 1, 0
1254, 9, T_Sinc, T_Sinc_URRR, 356.0, hit, 2, 0
1255, 9, T_Scon, T_Scon_UGLG, 343.5, hit, 1, 0
1256, 9, T_Scon, T_Scon_UGLG, 258.9, hit, 1, 0
1257, 9, T_Sinc, T_Sinc_DGLG, 366.3, hit, 1, 0
1258, 9, T_Scon, T_Scon_UGLG, 349.8, hit, 1, 0
1259, 9, T_Sinc, T_Sinc_DGLG, 249.2, hit, 1, 0
1260, 9, T_Scon, T_Scon_UGLG, 276.6, hit, 1, 0
1261, 9, T_Sinc, T_Sinc_DGLG, 387.8, hit, 1, 0
1262, 9, T_Scon, T_Scon_DRRR, 343.2, hit, 2, 0
1263, 9, T_Sinc, T_Sinc_DGLG, 342.6, hit, 1, 0
1264, 9, T_Sinc, T_Sinc_URRR, 290.1, hit, 2, 0
1265, 9, T_Scon, T_Scon_DRRR, 261.5, hit, 2, 0
1266, 9, T_Sinc, T_Sinc_URRR, 236.9, hit, 2, 0
1267, 9, T_Scon, T_Scon_DRRR, 288.4, hit, 2, 0
1268, 9, T_Sinc, T_Sinc_DGLG, 311.9, hit, 1, 0
1269, 9, T_Scon, T_Scon_DRRR, 271.2, incorrect, 1, 1
1270, 9, T_Sinc, T_Sinc_DGLG, 194.7, hit, 1, 0
1271, 9, T_Sinc, T_Sinc_URRR, 330.1, hit, 2, 0
1272, 9, T_Scon, T_Scon_DRRR, 245.6, hit, 2, 0
1273, 9, T_Sinc, T_Sinc_DGLG, 325.0, hit, 1, 0
1274, 9, T_Sinc, T_Sinc_DGLG, 444.4, hit, 1, 0
1275, 9, T_Sinc, T_Sinc_DGLG, 231.9, hit, 1, 0
1276, 9, T_Scon, T_Scon_UGLG, 295.4, hit, 1, 0
1277, 9, T_Scon, T_Scon_UGLG, 254.7, hit, 1, 0
1278, 9, T_Scon, T_Scon_DRRR, 206.2, incorrect, 1, 1
1279, 9, T_Sinc, T_Sinc_DGLG, 297.7, hit, 1, 0
1280, 9, T_Scon, T_Scon_UGLG, 305.0, hit, 1, 0
1281, 9, T_Sinc, T_Sinc_DGLG, 252.5, hit, 1, 0
1282, 9, T_Sinc, T_Sinc_DGLG, 276.0, hit, 1, 0
1283, 9, T_Sinc, T_Sinc_URRR, 311.4, hit, 2, 0
1284, 9, T_Sinc, T_Sinc_DGLG, 302.8, hit, 1, 0
1285, 9, T_Scon, T_Scon_DRRR, 322.2, hit, 2, 0
1286, 9, T_Sinc, T_Sinc_DGLG, 349.7, hit, 1, 0
1287, 9, T_Sinc, T_Sinc_URRR, 353.2, hit, 2, 0
1288, 9, T_Scon, T_Scon_DRRR, 300.5, hit, 2, 0
1289, 9, T_Scon, T_Scon_DRRR, 304.0, hit, 2, 0
1290, 9, T_Scon, T_Scon_UGLG, 407.5, hit, 1, 0
1291, 9, T_Scon, T_Scon_UGLG, 438.9, hit, 1, 0
1292, 9, T_Scon, T_Scon_DRRR, 474.3, hit, 2, 0
1293, 9, T_Sinc, T_Sinc_URRR, 521.8, hit, 2, 2
1294, 9, T_Sinc, T_Sinc_DGLG, 333.2, hit, 1, 0
1295, 9, T_Scon, T_Scon_UGLG, 328.6, hit, 1, 0
1296, 9, T_Sinc, T_Sinc_DGLG, 288.0, hit, 1, 0
