trial_index, block, condition, full_condition_code, RT, response_type, response_key, error_outlier
1,1, T_Sinc, T_Sinc_DGLG,449.8, hit,1,0
2,1, T_Scon, T_Scon_UGLG,373.2, hit,1,0
3,1, T_Scon, T_Scon_DRRR,372.7, hit,2,0
4,1, T_Sinc, T_Sinc_DGLG,368.1, hit,1,0
5,1, T_Sinc, T_Sinc_DGLG,367.5, hit,1,0
6,1, T_Scon, T_Scon_DRRR,387, hit,2,0
7,1, T_Scon, T_Scon_DRRR,406.3, hit,2,0
8,1, T_Sinc, T_Sinc_URRR,357.8, hit,2,0
9,1, T_Sinc, T_Sinc_DGLG,357.3, hit,1,0
10,1, T_Scon, T_Scon_DRRR,348.7, hit,2,0
11,1, T_Scon, T_Scon_UGLG,288.1, hit,1,0
12,1, T_Sinc, T_Sinc_URRR,387.5, hit,2,0
13,1, T_Scon, T_Scon_UGLG,303, hit,1,0
14,1, T_Sinc, T_Sinc_URRR,314.4, hit,2,0
15,1, T_Sinc, T_Sinc_URRR,365.8, hit,2,0
16,1, T_Sinc, T_Sinc_DGLG,361.3, hit,1,0
17,1, T_Sinc, T_Sinc_URRR,380.7, hit,2,0
18,1, T_Scon, T_Scon_UGLG,320.2, hit,1,0
19,1, T_Sinc, T_Sinc_DGLG,451.7, hit,1,0
20,1, T_Sinc, T_Sinc_URRR,355, hit,2,0
21,1, T_Sinc, T_Sinc_URRR,334.5, hit,2,0
22,1, T_Scon, T_Scon_DRRR,305.9, hit,2,0
23,1, T_Scon, T_Scon_DRRR,405.3, hit,2,0
24,1, T_Sinc, T_Sinc_URRR,404.8, hit,2,0
25,1, T_Sinc, T_Sinc_DGLG,392.2, hit,1,0
26,1, T_Sinc, T_Sinc_DGLG,351.7, hit,1,0
27,1, T_Sinc, T_Sinc_DGLG,411, hit,1,0
28,1, T_Sinc, T_Sinc_DGLG,446.5, hit,1,0
29,1, T_Scon, T_Scon_UGLG,474, incorrect,2,1
30,1, T_Sinc, T_Sinc_URRR,333.4, hit,2,0
31,1, T_Sinc, T_Sinc_DGLG,416.9, hit,1,0
32,1, T_Sinc, T_Sinc_URRR,388.2, hit,2,0
33,1, T_Scon, T_Scon_UGLG,375.7, hit,1,0
34,1, T_Scon, T_Scon_DRRR,507.1, hit,2,0
35,1, T_Sinc, T_Sinc_DGLG,350.6, hit,1,0
36,1, T_Sinc, T_Sinc_DGLG,350, hit,1,0
37,1, T_Sinc, T_Sinc_DGLG,437.2, hit,1,0
38,1, T_Scon, T_Scon_DRRR,360.5, hit,2,0
39,1, T_Sinc, T_Sinc_URRR,360, hit,2,0
40,1, T_Scon, T_Scon_DRRR,315.5, hit,2,0
41,1, T_Sinc, T_Sinc_DGLG,310.9, hit,1,0
42,1, T_Scon, T_Scon_DRRR,378.3, hit,2,0
43,1, T_Scon, T_Scon_DRRR,369.8, hit,2,0
44,1, T_Scon, T_Scon_UGLG,301.2, hit,1,0
45,1, T_Scon, T_Scon_UGLG,384.6, hit,1,0
46,1, T_Scon, T_Scon_UGLG,340.1, hit,1,0
47,1, T_Sinc, T_Sinc_DGLG,395.5, hit,1,0
48,1, T_Scon, T_Scon_UGLG,327, hit,1,0
49,1, T_Sinc, T_Sinc_URRR,490.4, hit,2,0
50,1, T_Scon, T_Scon_DRRR,533.8, hit,2,0
51,1, T_Scon, T_Scon_DRRR,377.3, hit,2,0
52,1, T_Sinc, T_Sinc_DGLG,464.7, hit,1,0
53,1, T_Sinc, T_Sinc_DGLG,372.2, hit,1,0
54,1, T_Scon, T_Scon_UGLG,375.7, hit,1,0
55,1, T_Sinc, T_Sinc_URRR,383, hit,2,0
56,1, T_Sinc, T_Sinc_DGLG,426.5, hit,1,0
57,1, T_Scon, T_Scon_DRRR,405.9, hit,2,0
58,1, T_Scon, T_Scon_DRRR,377.3, hit,2,0
59,1, T_Scon, T_Scon_UGLG,364.8, hit,1,0
60,1, T_Sinc, T_Sinc_DGLG,268.2, hit,1,0
61,1, T_Scon, T_Scon_DRRR,399.7, hit,2,0
62,1, T_Scon, T_Scon_DRRR,503.1, hit,2,0
63,1, T_Scon, T_Scon_UGLG,314.5, hit,1,0
64,1, T_Scon, T_Scon_UGLG,298, hit,1,0
65,1, T_Sinc, T_Sinc_URRR,353.4, hit,2,0
66,1, T_Scon, T_Scon_DRRR,396.9, hit,2,0
67,1, T_Sinc, T_Sinc_URRR,384.3, hit,2,0
68,1, T_Scon, T_Scon_DRRR,411.7, hit,2,0
69,1, T_Scon, T_Scon_UGLG,303.2, hit,1,0
70,1, T_Scon, T_Scon_DRRR,434.6, hit,2,0
71,1, T_Sinc, T_Sinc_URRR,386, hit,2,0
72,1, T_Sinc, T_Sinc_DGLG,329.5, hit,1,0
73,1, T_Scon, T_Scon_UGLG,360.7, hit,1,0
74,1, T_Scon, T_Scon_DRRR,332, hit,2,0
75,1, T_Scon, T_Scon_DRRR,315.5, hit,2,0
76,1, T_Sinc, T_Sinc_URRR,367, hit,2,0
77,1, T_Scon, T_Scon_DRRR,362.3, incorrect,1,1
78,1, T_Scon, T_Scon_UGLG,313.8, hit,1,0
79,1, T_Scon, T_Scon_UGLG,353.2, hit,1,0
80,1, T_Scon, T_Scon_DRRR,336.7, hit,2,0
81,1, T_Scon, T_Scon_DRRR,324.1, hit,2,0
82,1, T_Sinc, T_Sinc_URRR,375.5, hit,2,0
83,1, T_Sinc, T_Sinc_DGLG,411, hit,1,0
84,1, T_Scon, T_Scon_UGLG,334.5, hit,1,0
85,1, T_Sinc, T_Sinc_URRR,369.8, hit,2,0
86,1, T_Sinc, T_Sinc_DGLG,393.3, hit,1,0
87,1, T_Scon, T_Scon_UGLG,336.7, hit,1,0
88,1, T_Sinc, T_Sinc_URRR,396.2, hit,2,0
89,1, T_Scon, T_Scon_UGLG,383.6, hit,1,0
90,1, T_Scon, T_Scon_DRRR,359, hit,2,0
91,1, T_Sinc, T_Sinc_DGLG,362.5, hit,1,0
92,1, T_Sinc, T_Sinc_DGLG,334, hit,1,0
93,1, T_Scon, T_Scon_DRRR,329.3, hit,2,0
94,1, T_Scon, T_Scon_UGLG,348.8, hit,1,0
95,1, T_Sinc, T_Sinc_URRR,384.2, hit,2,0
96,1, T_Sinc, T_Sinc_URRR,443.7, hit,2,0
97,1, T_Scon, T_Scon_DRRR,375.2, hit,2,0
98,1, T_Sinc, T_Sinc_URRR,398.5, hit,2,0
99,1, T_Sinc, T_Sinc_URRR,402, hit,2,0
100,1, T_Sinc, T_Sinc_DGLG,389.4, hit,1,0
101,1, T_Scon, T_Scon_DRRR,324.9, hit,2,0
102,1, T_Sinc, T_Sinc_URRR,332.3, hit,2,0
103,1, T_Scon, T_Scon_UGLG,359.7, hit,1,0
104,1, T_Sinc, T_Sinc_DGLG,391.2, hit,1,0
105,1, T_Scon, T_Scon_UGLG,506.6, hit,1,0
106,1, T_Sinc, T_Sinc_DGLG,422.1, hit,1,0
107,1, T_Scon, T_Scon_DRRR,317.5, hit,2,0
108,1, T_Sinc, T_Sinc_URRR,240.9, hit,2,0
109,1, T_Scon, T_Scon_UGLG,340.1, hit,1,0
110,1, T_Sinc, T_Sinc_URRR,335.5, hit,2,0
111,1, T_Scon, T_Scon_DRRR,347, hit,2,0
112,1, T_Scon, T_Scon_UGLG,298.3, hit,1,0
113,1, T_Scon, T_Scon_DRRR,373.8, hit,2,0
114,1, T_Sinc, T_Sinc_DGLG,433.2, hit,1,0
115,1, T_Sinc, T_Sinc_DGLG,316.7, hit,1,0
116,1, T_Sinc, T_Sinc_URRR,356.1, hit,2,0
117,1, T_Scon, T_Scon_UGLG,351.5, hit,1,0
118,1, T_Sinc, T_Sinc_URRR,427, hit,2,0
119,1, T_Sinc, T_Sinc_DGLG,486.5, hit,1,0
120,1, T_Scon, T_Scon_UGLG,361.8, hit,1,0
121,1, T_Scon, T_Scon_DRRR,329.3, hit,2,0
122,1, T_Scon, T_Scon_DRRR,392.7, hit,2,0
123,1, T_Sinc, T_Sinc_URRR,352.2, hit,2,0
124,1, T_Sinc, T_Sinc_URRR,295.7, hit,2,0
125,1, T_Sinc, T_Sinc_URRR,335, hit,2,0
126,1, T_Scon, T_Scon_DRRR,366.5, hit,2,0
127,1, T_Sinc, T_Sinc_DGLG,457.9, hit,1,0
128,1, T_Scon, T_Scon_UGLG,393.4, hit,1,0
129,1, T_Sinc, T_Sinc_URRR,340.8, hit,2,0
130,1, T_Scon, T_Scon_UGLG,312.2, hit,1,0
131,1, T_Scon, T_Scon_UGLG,383.7, hit,1,0
132,1, T_Scon, T_Scon_UGLG,359.2, hit,1,0
133,1, T_Sinc, T_Sinc_DGLG,434.5, hit,1,0
134,1, T_Sinc, T_Sinc_DGLG,378, hit,1,0
135,1, T_Sinc, T_Sinc_DGLG,321.4, hit,1,0
136,1, T_Sinc, T_Sinc_URRR,340.9, hit,2,0
137,1, T_Scon, T_Scon_UGLG,472.3, hit,1,0
138,1, T_Scon, T_Scon_UGLG,387.7, hit,1,0
139,1, T_Scon, T_Scon_UGLG,279.2, hit,1,0
140,1, T_Sinc, T_Sinc_URRR,378.7, hit,2,0
141,1, T_Scon, T_Scon_DRRR,426, hit,2,0
142,1, T_Scon, T_Scon_UGLG,401.5, hit,1,0
143,1, T_Sinc, T_Sinc_URRR,348.9, incorrect,1,1
144,1, T_Sinc, T_Sinc_DGLG,472.4, hit,1,0
145,2, T_Scon, T_Scon_UGLG,383.4, hit,1,0
146,2, T_Sinc, T_Sinc_URRR,274.8, hit,2,0
147,2, T_Scon, T_Scon_DRRR,334.2, hit,2,0
148,2, T_Sinc, T_Sinc_DGLG,369.7, hit,1,0
149,2, T_Sinc, T_Sinc_DGLG,381, hit,1,0
150,2, T_Sinc, T_Sinc_URRR,276.5, hit,2,0
151,2, T_Scon, T_Scon_DRRR,324, hit,2,0
152,2, T_Sinc, T_Sinc_URRR,383.4, hit,2,0
153,2, T_Sinc, T_Sinc_DGLG,418.9, hit,1,0
154,2, T_Scon, T_Scon_UGLG,378.2, hit,1,0
155,2, T_Sinc, T_Sinc_URRR,281.7, hit,2,0
156,2, T_Sinc, T_Sinc_DGLG,481.2, hit,1,0
157,2, T_Scon, T_Scon_UGLG,360.6, hit,1,0
158,2, T_Sinc, T_Sinc_DGLG,388, hit,1,0
159,2, T_Scon, T_Scon_UGLG,287.4, hit,1,0
160,2, T_Scon, T_Scon_UGLG,338.9, hit,1,0
161,2, T_Sinc, T_Sinc_URRR,254.4, hit,2,0
162,2, T_Scon, T_Scon_DRRR,345.7, hit,2,0
163,2, T_Scon, T_Scon_DRRR,369.2, hit,2,0
164,2, T_Sinc, T_Sinc_DGLG,328.6, hit,1,0
165,2, T_Sinc, T_Sinc_URRR,332, hit,2,0
166,2, T_Scon, T_Scon_UGLG,259.5, hit,1,0
167,2, T_Scon, T_Scon_DRRR,366.9, hit,2,0
168,2, T_Sinc, T_Sinc_DGLG,342.4, hit,1,0
169,2, T_Scon, T_Scon_DRRR,329.8, hit,2,0
170,2, T_Scon, T_Scon_UGLG,257.2, hit,1,0
171,2, T_Sinc, T_Sinc_DGLG,324.8, incorrect,2,1
172,2, T_Sinc, T_Sinc_URRR,288.1, incorrect,1,1
173,2, T_Scon, T_Scon_DRRR,363.6, hit,2,0
174,2, T_Sinc, T_Sinc_DGLG,391, hit,1,0
175,2, T_Sinc, T_Sinc_DGLG,386.4, hit,1,0
176,2, T_Scon, T_Scon_DRRR,341.9, hit,2,0
177,2, T_Sinc, T_Sinc_DGLG,325.3, hit,1,0
178,2, T_Sinc, T_Sinc_URRR,344.8, hit,2,0
179,2, T_Scon, T_Scon_DRRR,348.1, incorrect,1,1
180,2, T_Scon, T_Scon_UGLG,335.6, hit,1,0
181,2, T_Scon, T_Scon_DRRR,402.8, hit,2,0
182,2, T_Scon, T_Scon_UGLG,302.2, hit,1,0
183,2, T_Scon, T_Scon_UGLG,277.6, hit,1,0
184,2, T_Scon, T_Scon_UGLG,361.1, hit,1,0
185,2, T_Scon, T_Scon_UGLG,336.5, hit,1,0
186,2, T_Sinc, T_Sinc_DGLG,407.9, hit,1,0
187,2, T_Sinc, T_Sinc_URRR,355.4, hit,2,0
188,2, T_Scon, T_Scon_DRRR,426.8, hit,2,0
189,2, T_Sinc, T_Sinc_URRR,342.3, hit,2,0
190,2, T_Scon, T_Scon_UGLG,409.7, hit,1,0
191,2, T_Scon, T_Scon_DRRR,285.1, hit,2,0
192,2, T_Sinc, T_Sinc_DGLG,356.6, incorrect,2,1
193,2, T_Sinc, T_Sinc_URRR,403.9, hit,2,0
194,2, T_Scon, T_Scon_DRRR,383.4, hit,2,0
195,2, T_Sinc, T_Sinc_URRR,338.9, hit,2,0
196,2, T_Scon, T_Scon_UGLG,326.3, hit,1,0
197,2, T_Sinc, T_Sinc_URRR,249.8, hit,2,0
198,2, T_Scon, T_Scon_DRRR,373.2, hit,2,0
199,2, T_Scon, T_Scon_UGLG,284.6, hit,1,0
200,2, T_Scon, T_Scon_DRRR,364.1, hit,2,0
201,2, T_Scon, T_Scon_DRRR,447.6, hit,2,0
202,2, T_Sinc, T_Sinc_URRR,318.9, hit,2,0
203,2, T_Sinc, T_Sinc_URRR,338.4, hit,2,0
204,2, T_Scon, T_Scon_UGLG,349.8, hit,1,0
205,2, T_Scon, T_Scon_DRRR,337.3, hit,2,0
206,2, T_Scon, T_Scon_UGLG,348.8, hit,1,0
207,2, T_Scon, T_Scon_UGLG,416.1, hit,1,0
208,2, T_Sinc, T_Sinc_DGLG,555.6, hit,1,2
209,2, T_Sinc, T_Sinc_URRR,295.1, hit,2,0
210,2, T_Sinc, T_Sinc_DGLG,434.4, hit,1,0
211,2, T_Scon, T_Scon_UGLG,401.9, hit,1,0
212,2, T_Sinc, T_Sinc_DGLG,381.4, hit,1,0
213,2, T_Sinc, T_Sinc_URRR,400.8, hit,2,0
214,2, T_Scon, T_Scon_DRRR,428.2, hit,2,0
215,2, T_Scon, T_Scon_DRRR,415.6, hit,2,0
216,2, T_Scon, T_Scon_UGLG,339.1, hit,1,0
217,2, T_Scon, T_Scon_DRRR,406.3, hit,2,0
218,2, T_Scon, T_Scon_UGLG,273.7, hit,1,0
219,2, T_Scon, T_Scon_UGLG,333.1, hit,1,0
220,2, T_Sinc, T_Sinc_DGLG,368.5, hit,1,0
221,2, T_Sinc, T_Sinc_DGLG,347.9, hit,1,0
222,2, T_Sinc, T_Sinc_DGLG,323.4, hit,1,0
223,2, T_Sinc, T_Sinc_URRR,406.9, hit,2,0
224,2, T_Scon, T_Scon_UGLG,414.2, hit,1,0
225,2, T_Sinc, T_Sinc_DGLG,341.7, hit,1,0
226,2, T_Sinc, T_Sinc_DGLG,345.1, hit,1,0
227,2, T_Scon, T_Scon_DRRR,388.6, hit,2,0
228,2, T_Scon, T_Scon_UGLG,372.1, hit,1,0
229,2, T_Scon, T_Scon_DRRR,363.4, hit,2,0
230,2, T_Scon, T_Scon_DRRR,418.9, hit,2,0
231,2, T_Scon, T_Scon_UGLG,414.3, hit,1,0
232,2, T_Sinc, T_Sinc_DGLG,369.8, hit,1,0
233,2, T_Scon, T_Scon_UGLG,373.1, hit,1,0
234,2, T_Sinc, T_Sinc_DGLG,380.6, hit,1,0
235,2, T_Scon, T_Scon_UGLG,356.1, hit,1,0
236,2, T_Sinc, T_Sinc_DGLG,399.4, hit,1,0
237,2, T_Sinc, T_Sinc_URRR,366.9, hit,2,0
238,2, T_Scon, T_Scon_DRRR,314.4, hit,2,0
239,2, T_Scon, T_Scon_UGLG,373.8, hit,1,0
240,2, T_Sinc, T_Sinc_DGLG,413.3, hit,1,0
241,2, T_Scon, T_Scon_DRRR,344.7, hit,2,0
242,2, T_Sinc, T_Sinc_URRR,404.1, hit,2,0
243,2, T_Scon, T_Scon_DRRR,367.6, hit,2,0
244,2, T_Sinc, T_Sinc_URRR,435, hit,2,0
245,2, T_Sinc, T_Sinc_URRR,334.4, hit,2,0
246,2, T_Sinc, T_Sinc_DGLG,361.9, hit,1,0
247,2, T_Sinc, T_Sinc_URRR,369.3, hit,2,0
248,2, T_Sinc, T_Sinc_URRR,340.7, hit,2,0
249,2, T_Scon, T_Scon_DRRR,328.2, hit,2,0
250,2, T_Sinc, T_Sinc_DGLG,363.6, hit,1,0
251,2, T_Sinc, T_Sinc_URRR,359.1, hit,2,0
252,2, T_Sinc, T_Sinc_DGLG,346.6, hit,1,0
253,2, T_Sinc, T_Sinc_DGLG,417.7, hit,1,0
254,2, T_Scon, T_Scon_DRRR,293.1, hit,2,0
255,2, T_Scon, T_Scon_DRRR,400.5, hit,2,0
256,2, T_Scon, T_Scon_UGLG,308, hit,1,0
257,2, T_Scon, T_Scon_DRRR,299.4, hit,2,0
258,2, T_Sinc, T_Sinc_URRR,290.9, hit,2,0
259,2, T_Sinc, T_Sinc_DGLG,342.3, hit,1,0
260,2, T_Scon, T_Scon_DRRR,369.7, hit,2,0
261,2, T_Sinc, T_Sinc_DGLG,385.1, hit,1,0
262,2, T_Scon, T_Scon_DRRR,328.6, hit,2,0
263,2, T_Sinc, T_Sinc_URRR,260.1, hit,2,0
264,2, T_Sinc, T_Sinc_URRR,319.4, hit,2,0
265,2, T_Scon, T_Scon_UGLG,410.9, hit,1,0
266,2, T_Sinc, T_Sinc_URRR,322.4, hit,2,0
267,2, T_Scon, T_Scon_DRRR,349.8, hit,2,0
268,2, T_Sinc, T_Sinc_URRR,333.2, hit,2,0
269,2, T_Scon, T_Scon_UGLG,328.6, hit,1,0
270,2, T_Sinc, T_Sinc_URRR,356.1, hit,2,0
271,2, T_Sinc, T_Sinc_URRR,247.6, hit,2,0
272,2, T_Sinc, T_Sinc_URRR,386.9, hit,2,0
273,2, T_Scon, T_Scon_UGLG,366.4, hit,1,0
274,2, T_Sinc, T_Sinc_URRR,361.8, hit,2,0
275,2, T_Sinc, T_Sinc_DGLG,381.3, hit,1,0
276,2, T_Scon, T_Scon_UGLG,332.8, hit,1,0
277,2, T_Scon, T_Scon_UGLG,344.1, hit,1,0
278,2, T_Sinc, T_Sinc_URRR,371.6, hit,2,0
279,2, T_Scon, T_Scon_UGLG,511, hit,1,0
280,2, T_Sinc, T_Sinc_URRR,346.4, hit,2,0
281,2, T_Scon, T_Scon_DRRR,345.9, hit,2,0
282,2, T_Scon, T_Scon_DRRR,373.3, hit,2,0
283,2, T_Sinc, T_Sinc_DGLG,372.7, hit,1,0
284,2, T_Sinc, T_Sinc_DGLG,324.2, hit,1,0
285,2, T_Sinc, T_Sinc_DGLG,315.6, hit,1,0
286,2, T_Scon, T_Scon_UGLG,315.1, hit,1,0
287,2, T_Sinc, T_Sinc_DGLG,318.5, hit,1,0
288,2, T_Scon, T_Scon_DRRR,366, hit,2,0
289,3, T_Sinc, T_Sinc_URRR,336.5, hit,2,0
290,3, T_Scon, T_Scon_UGLG,363.9, hit,1,0
291,3, T_Scon, T_Scon_DRRR,291.3, hit,2,0
292,3, T_Sinc, T_Sinc_URRR,310.8, hit,2,0
293,3, T_Scon, T_Scon_DRRR,330.2, hit,2,0
294,3, T_Scon, T_Scon_UGLG,393.6, hit,1,0
295,3, T_Sinc, T_Sinc_URRR,269.1, hit,2,0
296,3, T_Scon, T_Scon_DRRR,344.5, hit,2,0
297,3, T_Sinc, T_Sinc_DGLG,312, hit,1,0
298,3, T_Scon, T_Scon_DRRR,283.4, hit,2,0
299,3, T_Scon, T_Scon_DRRR,350.8, hit,2,0
300,3, T_Sinc, T_Sinc_DGLG,298.3, hit,1,0
301,3, T_Scon, T_Scon_DRRR,341.7, hit,2,0
302,3, T_Scon, T_Scon_UGLG,377.1, hit,1,0
303,3, T_Scon, T_Scon_DRRR,320.5, hit,2,0
304,3, T_Scon, T_Scon_UGLG,312, hit,1,0
305,3, T_Sinc, T_Sinc_URRR,347.5, hit,2,0
306,3, T_Sinc, T_Sinc_DGLG,470.8, hit,1,0
307,3, T_Scon, T_Scon_UGLG,410.3, hit,1,0
308,3, T_Sinc, T_Sinc_DGLG,357.7, hit,1,0
309,3, T_Sinc, T_Sinc_URRR,361.2, hit,2,0
310,3, T_Sinc, T_Sinc_DGLG,320.6, hit,1,0
311,3, T_Scon, T_Scon_DRRR,524, hit,2,0
312,3, T_Sinc, T_Sinc_URRR,407.5, hit,2,0
313,3, T_Sinc, T_Sinc_URRR,294.9, hit,2,0
314,3, T_Scon, T_Scon_UGLG,290.3, incorrect,2,1
315,3, T_Sinc, T_Sinc_URRR,253.8, hit,2,0
316,3, T_Sinc, T_Sinc_DGLG,361.2, hit,1,0
317,3, T_Scon, T_Scon_UGLG,324.7, hit,1,0
318,3, T_Sinc, T_Sinc_URRR,384.2, hit,2,0
319,3, T_Scon, T_Scon_UGLG,259.5, hit,1,0
320,3, T_Sinc, T_Sinc_DGLG,391, hit,1,0
321,3, T_Sinc, T_Sinc_DGLG,458.4, hit,1,0
322,3, T_Sinc, T_Sinc_DGLG,341.9, hit,1,0
323,3, T_Scon, T_Scon_UGLG,377.3, hit,1,0
324,3, T_Sinc, T_Sinc_DGLG,360.7, hit,1,0
325,3, T_Sinc, T_Sinc_URRR,424, hit,2,0
326,3, T_Sinc, T_Sinc_URRR,259.3, hit,2,0
327,3, T_Scon, T_Scon_DRRR,318.8, hit,2,0
328,3, T_Scon, T_Scon_UGLG,402.2, hit,1,0
329,3, T_Scon, T_Scon_UGLG,325.6, hit,1,0
330,3, T_Scon, T_Scon_UGLG,321, hit,1,0
331,3, T_Scon, T_Scon_UGLG,304.5, hit,1,0
332,3, T_Scon, T_Scon_UGLG,284, hit,1,0
333,3, T_Scon, T_Scon_UGLG,319.4, hit,1,0
334,3, T_Sinc, T_Sinc_URRR,338.8, hit,2,0
335,3, T_Sinc, T_Sinc_URRR,350.2, hit,2,0
336,3, T_Sinc, T_Sinc_URRR,377.7, incorrect,1,1
337,3, T_Scon, T_Scon_DRRR,353.1, hit,2,0
338,3, T_Scon, T_Scon_UGLG,380.5, hit,1,0
339,3, T_Scon, T_Scon_UGLG,392, hit,1,0
340,3, T_Scon, T_Scon_UGLG,339.4, hit,1,0
341,3, T_Scon, T_Scon_DRRR,366.9, hit,2,0
342,3, T_Scon, T_Scon_DRRR,354.3, hit,2,0
343,3, T_Scon, T_Scon_UGLG,373.7, hit,1,0
344,3, T_Scon, T_Scon_DRRR,321.2, hit,2,0
345,3, T_Sinc, T_Sinc_URRR,372.7, hit,2,0
346,3, T_Sinc, T_Sinc_DGLG,476, hit,1,0
347,3, T_Scon, T_Scon_UGLG,359.5, hit,1,0
348,3, T_Sinc, T_Sinc_URRR,358.9, hit,2,0
349,3, T_Scon, T_Scon_UGLG,378.4, hit,1,0
350,3, T_Sinc, T_Sinc_DGLG,369.9, hit,1,0
351,3, T_Scon, T_Scon_UGLG,381.2, hit,1,0
352,3, T_Sinc, T_Sinc_URRR,356.7, hit,2,0
353,3, T_Scon, T_Scon_UGLG,364.2, hit,1,0
354,3, T_Sinc, T_Sinc_URRR,339.5, hit,2,0
355,3, T_Sinc, T_Sinc_DGLG,419, hit,1,0
356,3, T_Sinc, T_Sinc_URRR,330.4, hit,2,0
357,3, T_Scon, T_Scon_DRRR,349.9, hit,2,0
358,3, T_Sinc, T_Sinc_URRR,325.3, hit,2,0
359,3, T_Scon, T_Scon_UGLG,428.7, hit,1,0
360,3, T_Sinc, T_Sinc_DGLG,448.2, hit,1,0
361,3, T_Sinc, T_Sinc_URRR,327.3, hit,2,0
362,3, T_Scon, T_Scon_DRRR,406.8, hit,2,0
363,3, T_Sinc, T_Sinc_URRR,370.2, hit,2,0
364,3, T_Sinc, T_Sinc_URRR,337.6, hit,2,0
365,3, T_Sinc, T_Sinc_DGLG,313.1, hit,1,0
366,3, T_Scon, T_Scon_DRRR,460.5, hit,2,0
367,3, T_Sinc, T_Sinc_URRR,544, hit,2,0
368,3, T_Scon, T_Scon_DRRR,371.4, hit,2,0
369,3, T_Scon, T_Scon_DRRR,422.8, hit,2,0
370,3, T_Sinc, T_Sinc_URRR,346.3, hit,2,0
371,3, T_Scon, T_Scon_UGLG,409.7, hit,1,0
372,3, T_Scon, T_Scon_UGLG,525.1, hit,1,0
373,3, T_Sinc, T_Sinc_URRR,324.5, hit,2,0
374,3, T_Scon, T_Scon_DRRR,308, hit,2,0
375,3, T_Sinc, T_Sinc_DGLG,403.5, hit,1,0
376,3, T_Scon, T_Scon_DRRR,430.8, hit,2,0
377,3, T_Scon, T_Scon_UGLG,386.3, hit,1,0
378,3, T_Scon, T_Scon_DRRR,405.7, hit,2,0
379,3, T_Scon, T_Scon_UGLG,325.2, hit,1,0
380,3, T_Sinc, T_Sinc_DGLG,416.7, hit,1,0
381,3, T_Scon, T_Scon_DRRR,372, hit,2,0
382,3, T_Scon, T_Scon_UGLG,439.5, hit,1,0
383,3, T_Scon, T_Scon_UGLG,347, hit,1,0
384,3, T_Sinc, T_Sinc_DGLG,362.4, hit,1,0
385,3, T_Scon, T_Scon_DRRR,329.8, hit,2,0
386,3, T_Sinc, T_Sinc_DGLG,317.2, hit,1,0
387,3, T_Scon, T_Scon_DRRR,324.7, hit,2,0
388,3, T_Scon, T_Scon_UGLG,272.2, hit,1,0
389,3, T_Sinc, T_Sinc_URRR,339.5, hit,2,0
390,3, T_Sinc, T_Sinc_URRR,343, hit,2,0
391,3, T_Scon, T_Scon_DRRR,470.4, hit,2,0
392,3, T_Scon, T_Scon_UGLG,341.9, hit,1,0
393,3, T_Sinc, T_Sinc_DGLG,421.3, hit,1,0
394,3, T_Sinc, T_Sinc_DGLG,404.7, hit,1,0
395,3, T_Sinc, T_Sinc_DGLG,360.2, hit,1,0
396,3, T_Scon, T_Scon_DRRR,375.6, hit,2,0
397,3, T_Sinc, T_Sinc_DGLG,410.8, hit,1,0
398,3, T_Sinc, T_Sinc_DGLG,310.2, hit,1,0
399,3, T_Scon, T_Scon_DRRR,377.7, hit,2,0
400,3, T_Sinc, T_Sinc_DGLG,345, hit,1,0
401,3, T_Sinc, T_Sinc_URRR,348.5, hit,2,0
402,3, T_Sinc, T_Sinc_DGLG,376, hit,1,0
403,3, T_Sinc, T_Sinc_DGLG,355.4, incorrect,2,1
404,3, T_Scon, T_Scon_UGLG,350.8, hit,1,0
405,3, T_Sinc, T_Sinc_URRR,402.2, hit,2,0
406,3, T_Scon, T_Scon_DRRR,377.7, hit,2,0
407,3, T_Sinc, T_Sinc_DGLG,465.2, hit,1,0
408,3, T_Scon, T_Scon_DRRR,420.5, hit,2,0
409,3, T_Scon, T_Scon_DRRR,432, hit,2,0
410,3, T_Scon, T_Scon_UGLG,391.4, hit,1,0
411,3, T_Scon, T_Scon_DRRR,386.9, hit,2,0
412,3, T_Sinc, T_Sinc_URRR,434.3, hit,2,0
413,3, T_Sinc, T_Sinc_URRR,369.7, hit,2,0
414,3, T_Scon, T_Scon_DRRR,329.2, hit,2,0
415,3, T_Scon, T_Scon_DRRR,408.6, hit,2,0
416,3, T_Sinc, T_Sinc_DGLG,428, hit,1,0
417,3, T_Scon, T_Scon_UGLG,455.5, hit,1,0
418,3, T_Scon, T_Scon_DRRR,410.9, hit,2,0
419,3, T_Sinc, T_Sinc_DGLG,398.3, hit,1,0
420,3, T_Sinc, T_Sinc_URRR,337.7, hit,2,0
421,3, T_Scon, T_Scon_DRRR,421.2, hit,2,0
422,3, T_Sinc, T_Sinc_DGLG,528.7, hit,1,0
423,3, T_Sinc, T_Sinc_DGLG,348.1, hit,1,0
424,3, T_Sinc, T_Sinc_DGLG,391.5, hit,1,0
425,3, T_Sinc, T_Sinc_DGLG,342.9, hit,1,0
426,3, T_Sinc, T_Sinc_URRR,370.4, hit,2,0
427,3, T_Sinc, T_Sinc_DGLG,457.9, hit,1,0
428,3, T_Scon, T_Scon_DRRR,401.3, hit,2,0
429,3, T_Sinc, T_Sinc_URRR,492.7, hit,2,0
430,3, T_Scon, T_Scon_UGLG,424.1, hit,1,0
431,3, T_Sinc, T_Sinc_URRR,323.6, hit,2,0
432,4, T_Scon, T_Scon_UGLG,413.8, hit,1,0
433,4, T_Sinc, T_Sinc_DGLG,329.3, hit,1,0
434,4, T_Sinc, T_Sinc_URRR,344.7, hit,2,0
435,4, T_Scon, T_Scon_DRRR,340.1, hit,2,0
436,4, T_Scon, T_Scon_DRRR,327.6, hit,2,0
437,4, T_Scon, T_Scon_UGLG,278.9, hit,1,0
438,4, T_Sinc, T_Sinc_DGLG,418.4, hit,1,0
439,4, T_Sinc, T_Sinc_DGLG,333.8, hit,1,0
440,4, T_Scon, T_Scon_UGLG,277.3, hit,1,0
441,4, T_Scon, T_Scon_DRRR,256.8, hit,2,0
442,4, T_Sinc, T_Sinc_URRR,300.1, hit,2,0
443,4, T_Sinc, T_Sinc_URRR,375.6, hit,2,0
444,4, T_Scon, T_Scon_DRRR,427, hit,2,0
445,4, T_Sinc, T_Sinc_DGLG,350.5, hit,1,0
446,4, T_Sinc, T_Sinc_URRR,361.9, hit,2,0
447,4, T_Sinc, T_Sinc_URRR,449.3, hit,2,0
448,4, T_Sinc, T_Sinc_URRR,296.8, hit,2,0
449,4, T_Scon, T_Scon_DRRR,380.2, hit,2,0
450,4, T_Sinc, T_Sinc_URRR,267.7, hit,2,0
451,4, T_Scon, T_Scon_UGLG,379.1, hit,1,0
452,4, T_Sinc, T_Sinc_DGLG,354.5, hit,1,0
453,4, T_Sinc, T_Sinc_DGLG,326, hit,1,0
454,4, T_Scon, T_Scon_DRRR,345.5, hit,2,0
455,4, T_Sinc, T_Sinc_URRR,364.8, hit,2,0
456,4, T_Sinc, T_Sinc_DGLG,424.3, hit,1,0
457,4, T_Sinc, T_Sinc_URRR,307.8, hit,2,0
458,4, T_Scon, T_Scon_DRRR,343.1, hit,2,0
459,4, T_Scon, T_Scon_DRRR,394.7, hit,2,0
460,4, T_Sinc, T_Sinc_DGLG,338, hit,1,0
461,4, T_Sinc, T_Sinc_DGLG,301.5, hit,1,0
462,4, T_Scon, T_Scon_UGLG,361, hit,1,0
463,4, T_Scon, T_Scon_DRRR,356.3, hit,2,0
464,4, T_Scon, T_Scon_UGLG,383.8, hit,1,0
465,4, T_Scon, T_Scon_DRRR,307.2, hit,2,0
466,4, T_Scon, T_Scon_UGLG,286.7, hit,1,0
467,4, T_Sinc, T_Sinc_DGLG,366, incorrect,2,1
468,4, T_Sinc, T_Sinc_URRR,381.3, hit,2,0
469,4, T_Scon, T_Scon_UGLG,348.6, hit,1,0
470,4, T_Scon, T_Scon_DRRR,288.1, hit,2,0
471,4, T_Sinc, T_Sinc_DGLG,335.6, hit,1,0
472,4, T_Sinc, T_Sinc_URRR,283, hit,2,0
473,4, T_Scon, T_Scon_UGLG,318.5, hit,1,0
474,4, T_Sinc, T_Sinc_DGLG,337.8, hit,1,0
475,4, T_Scon, T_Scon_UGLG,293.3, hit,1,0
476,4, T_Scon, T_Scon_DRRR,264.7, hit,2,0
477,4, T_Sinc, T_Sinc_URRR,244.2, hit,2,0
478,4, T_Sinc, T_Sinc_DGLG,311.7, hit,1,0
479,4, T_Sinc, T_Sinc_DGLG,403, hit,1,0
480,4, T_Scon, T_Scon_UGLG,330.5, hit,1,0
481,4, T_Scon, T_Scon_DRRR,329.8, hit,2,0
482,4, T_Scon, T_Scon_DRRR,429.3, hit,2,0
483,4, T_Scon, T_Scon_DRRR,336.8, hit,2,0
484,4, T_Sinc, T_Sinc_URRR,308.2, hit,2,0
485,4, T_Scon, T_Scon_UGLG,367.7, hit,1,0
486,4, T_Sinc, T_Sinc_DGLG,423.1, hit,1,0
487,4, T_Scon, T_Scon_UGLG,314.5, hit,1,0
488,4, T_Scon, T_Scon_DRRR,246, hit,2,0
489,4, T_Sinc, T_Sinc_URRR,301.5, hit,2,0
490,4, T_Sinc, T_Sinc_DGLG,356.8, incorrect,2,1
491,4, T_Scon, T_Scon_DRRR,376.3, hit,2,0
492,4, T_Scon, T_Scon_UGLG,315.7, hit,1,0
493,4, T_Scon, T_Scon_DRRR,327.2, hit,2,0
494,4, T_Sinc, T_Sinc_URRR,314.6, hit,2,0
495,4, T_Scon, T_Scon_UGLG,414, hit,1,0
496,4, T_Sinc, T_Sinc_URRR,345.5, hit,2,0
497,4, T_Sinc, T_Sinc_URRR,312.9, hit,2,0
498,4, T_Sinc, T_Sinc_URRR,300.4, hit,2,0
499,4, T_Sinc, T_Sinc_DGLG,451.8, hit,1,0
500,4, T_Sinc, T_Sinc_DGLG,319.2, hit,1,0
501,4, T_Sinc, T_Sinc_URRR,418.7, hit,2,0
502,4, T_Sinc, T_Sinc_DGLG,302, hit,1,0
503,4, T_Sinc, T_Sinc_URRR,337.5, hit,2,0
504,4, T_Sinc, T_Sinc_DGLG,360.7, incorrect,2,1
505,4, T_Sinc, T_Sinc_DGLG,352.1, hit,1,0
506,4, T_Sinc, T_Sinc_URRR,295.5, hit,2,0
507,4, T_Scon, T_Scon_DRRR,267, hit,2,0
508,4, T_Scon, T_Scon_UGLG,314.5, hit,1,0
509,4, T_Scon, T_Scon_UGLG,285.8, hit,1,0
510,4, T_Scon, T_Scon_UGLG,333.3, hit,1,0
511,4, T_Sinc, T_Sinc_URRR,304.7, hit,2,0
512,4, T_Scon, T_Scon_UGLG,324.2, hit,1,0
513,4, T_Sinc, T_Sinc_URRR,335.6, hit,2,0
514,4, T_Scon, T_Scon_DRRR,343, hit,2,0
515,4, T_Sinc, T_Sinc_URRR,434.5, hit,2,0
516,4, T_Sinc, T_Sinc_DGLG,314, hit,1,0
517,4, T_Scon, T_Scon_UGLG,273.3, hit,1,0
518,4, T_Scon, T_Scon_DRRR,284.8, hit,2,0
519,4, T_Scon, T_Scon_DRRR,368.3, hit,2,0
520,4, T_Scon, T_Scon_UGLG,415.7, hit,1,0
521,4, T_Sinc, T_Sinc_URRR,335.1, hit,2,0
522,4, T_Scon, T_Scon_DRRR,426.5, incorrect,1,1
523,4, T_Sinc, T_Sinc_DGLG,446, hit,1,0
524,4, T_Scon, T_Scon_UGLG,389.5, hit,1,0
525,4, T_Scon, T_Scon_UGLG,280.8, hit,1,0
526,4, T_Sinc, T_Sinc_URRR,376.3, hit,2,0
527,4, T_Scon, T_Scon_DRRR,375.8, hit,2,0
528,4, T_Sinc, T_Sinc_DGLG,439.2, hit,1,0
529,4, T_Sinc, T_Sinc_DGLG,322.6, hit,1,0
530,4, T_Sinc, T_Sinc_URRR,302, hit,2,0
531,4, T_Sinc, T_Sinc_URRR,277.5, hit,2,0
532,4, T_Scon, T_Scon_UGLG,361, hit,1,0
533,4, T_Sinc, T_Sinc_URRR,292.3, hit,2,0
534,4, T_Scon, T_Scon_UGLG,399.8, hit,1,0
535,4, T_Scon, T_Scon_DRRR,279.2, hit,2,0
536,4, T_Scon, T_Scon_DRRR,342.7, hit,2,0
537,4, T_Sinc, T_Sinc_URRR,362.1, incorrect,1,1
538,4, T_Sinc, T_Sinc_URRR,357.5, hit,2,0
539,4, T_Sinc, T_Sinc_DGLG,377, hit,1,0
540,4, T_Sinc, T_Sinc_DGLG,320.2, hit,1,0
541,4, T_Sinc, T_Sinc_URRR,327.6, hit,2,0
542,4, T_Sinc, T_Sinc_URRR,319, hit,2,0
543,4, T_Sinc, T_Sinc_URRR,250.5, hit,2,0
544,4, T_Scon, T_Scon_DRRR,433.9, hit,2,0
545,4, T_Scon, T_Scon_UGLG,321.3, hit,1,0
546,4, T_Sinc, T_Sinc_DGLG,324.8, hit,1,0
547,4, T_Scon, T_Scon_DRRR,400.2, hit,2,0
548,4, T_Sinc, T_Sinc_DGLG,475.7, hit,1,0
549,4, T_Scon, T_Scon_DRRR,327.1, hit,2,0
550,4, T_Sinc, T_Sinc_DGLG,354.5, hit,1,0
551,4, T_Sinc, T_Sinc_DGLG,341.9, hit,1,0
552,4, T_Scon, T_Scon_UGLG,305.4, hit,1,0
553,4, T_Scon, T_Scon_UGLG,364.8, hit,1,0
554,4, T_Sinc, T_Sinc_DGLG,352.2, hit,1,0
555,4, T_Scon, T_Scon_UGLG,263.7, hit,1,0
556,4, T_Scon, T_Scon_UGLG,251.1, hit,1,0
557,4, T_Sinc, T_Sinc_DGLG,310.5, hit,1,0
558,4, T_Scon, T_Scon_DRRR,394, hit,2,0
559,4, T_Scon, T_Scon_DRRR,313.5, hit,2,0
560,4, T_Sinc, T_Sinc_URRR,344.8, hit,2,0
561,4, T_Sinc, T_Sinc_DGLG,332.3, incorrect,2,1
562,4, T_Scon, T_Scon_DRRR,279.8, hit,2,0
563,4, T_Scon, T_Scon_UGLG,379.2, hit,1,0
564,4, T_Scon, T_Scon_DRRR,366.6, hit,2,0
565,4, T_Scon, T_Scon_UGLG,426, hit,1,0
566,4, T_Scon, T_Scon_DRRR,313.5, hit,2,0
567,4, T_Scon, T_Scon_UGLG,401, hit,1,0
568,4, T_Scon, T_Scon_UGLG,344.3, hit,1,0
569,4, T_Sinc, T_Sinc_DGLG,395.8, hit,1,0
570,4, T_Scon, T_Scon_DRRR,363.2, hit,2,0
571,4, T_Sinc, T_Sinc_URRR,310.7, hit,2,0
572,4, T_Sinc, T_Sinc_DGLG,394.2, hit,1,0
573,4, T_Scon, T_Scon_UGLG,417.5, hit,1,0
574,4, T_Scon, T_Scon_UGLG,417, hit,1,0
575,4, T_Scon, T_Scon_DRRR,356.5, hit,2,0
576,5, T_Scon, T_Scon_DRRR,341.5, hit,2,0
577,5, T_Sinc, T_Sinc_DGLG,360.9, hit,1,0
578,5, T_Sinc, T_Sinc_DGLG,292.3, hit,1,0
579,5, T_Sinc, T_Sinc_DGLG,351.8, hit,1,0
580,5, T_Sinc, T_Sinc_DGLG,287.1, hit,1,0
581,5, T_Scon, T_Scon_DRRR,270.7, hit,2,0
582,5, T_Scon, T_Scon_DRRR,270, hit,2,0
583,5, T_Sinc, T_Sinc_URRR,345.5, hit,2,0
584,5, T_Scon, T_Scon_UGLG,365, hit,1,0
585,5, T_Scon, T_Scon_DRRR,312.4, hit,2,0
586,5, T_Scon, T_Scon_UGLG,507.8, hit,1,0
587,5, T_Sinc, T_Sinc_DGLG,343.2, hit,1,0
588,5, T_Scon, T_Scon_DRRR,370.7, hit,2,0
589,5, T_Sinc, T_Sinc_URRR,278.2, hit,2,0
590,5, T_Scon, T_Scon_UGLG,337.5, hit,1,0
591,5, T_Sinc, T_Sinc_DGLG,357, hit,1,0
592,5, T_Scon, T_Scon_UGLG,328.4, hit,1,0
593,5, T_Scon, T_Scon_DRRR,367.9, hit,2,0
594,5, T_Sinc, T_Sinc_DGLG,335.3, hit,1,0
595,5, T_Scon, T_Scon_UGLG,350.7, hit,1,0
596,5, T_Scon, T_Scon_UGLG,362.2, hit,1,0
597,5, T_Sinc, T_Sinc_URRR,357.6, hit,2,0
598,5, T_Scon, T_Scon_UGLG,433, hit,1,0
599,5, T_Scon, T_Scon_UGLG,524.5, hit,1,0
600,5, T_Scon, T_Scon_DRRR,275.9, hit,2,0
601,5, T_Sinc, T_Sinc_DGLG,451.4, hit,1,0
602,5, T_Sinc, T_Sinc_URRR,390.8, hit,2,0
603,5, T_Sinc, T_Sinc_URRR,618.2, hit,2,2
604,5, T_Scon, T_Scon_UGLG,357.7, hit,1,0
605,5, T_Sinc, T_Sinc_DGLG,333.1, hit,1,0
606,5, T_Scon, T_Scon_DRRR,396.5, hit,2,0
607,5, T_Scon, T_Scon_DRRR,332, hit,2,0
608,5, T_Sinc, T_Sinc_DGLG,363.4, hit,1,0
609,5, T_Scon, T_Scon_DRRR,390.9, hit,2,0
610,5, T_Scon, T_Scon_DRRR,290.2, hit,2,0
611,5, T_Sinc, T_Sinc_URRR,297.7, hit,2,0
612,5, T_Sinc, T_Sinc_DGLG,480.9, hit,1,0
613,5, T_Sinc, T_Sinc_URRR,352.3, hit,2,0
614,5, T_Scon, T_Scon_UGLG,267.7, hit,1,0
615,5, T_Sinc, T_Sinc_DGLG,307.2, hit,1,0
616,5, T_Sinc, T_Sinc_URRR,326.6, hit,2,0
617,5, T_Sinc, T_Sinc_DGLG,390.1, hit,1,0
618,5, T_Scon, T_Scon_DRRR,297.5, hit,2,0
619,5, T_Scon, T_Scon_UGLG,277, hit,1,0
620,5, T_Sinc, T_Sinc_DGLG,312.4, hit,1,0
621,5, T_Sinc, T_Sinc_DGLG,339.8, hit,1,0
622,5, T_Scon, T_Scon_DRRR,391.2, hit,2,0
623,5, T_Scon, T_Scon_DRRR,386.7, hit,2,0
624,5, T_Sinc, T_Sinc_DGLG,318.2, hit,1,0
625,5, T_Sinc, T_Sinc_URRR,345.5, hit,2,0
626,5, T_Sinc, T_Sinc_DGLG,309, hit,1,0
627,5, T_Sinc, T_Sinc_DGLG,308.4, hit,1,0
628,5, T_Sinc, T_Sinc_URRR,343.9, hit,2,0
629,5, T_Sinc, T_Sinc_URRR,271.3, hit,2,0
630,5, T_Sinc, T_Sinc_URRR,402.7, hit,2,0
631,5, T_Sinc, T_Sinc_DGLG,382.2, hit,1,0
632,5, T_Scon, T_Scon_DRRR,389.7, hit,2,0
633,5, T_Sinc, T_Sinc_URRR,433, hit,2,0
634,5, T_Scon, T_Scon_UGLG,356.5, hit,1,0
635,5, T_Scon, T_Scon_UGLG,299.9, incorrect,2,1
636,5, T_Sinc, T_Sinc_DGLG,395.4, hit,1,0
637,5, T_Scon, T_Scon_DRRR,350.9, hit,2,0
638,5, T_Sinc, T_Sinc_URRR,322.2, hit,2,0
639,5, T_Sinc, T_Sinc_URRR,301.7, hit,2,0
640,5, T_Sinc, T_Sinc_DGLG,365.1, hit,1,0
641,5, T_Scon, T_Scon_DRRR,360.6, hit,2,0
642,5, T_Scon, T_Scon_UGLG,260, incorrect,2,1
643,5, T_Sinc, T_Sinc_DGLG,371.4, hit,1,0
644,5, T_Scon, T_Scon_UGLG,258.9, hit,1,0
645,5, T_Scon, T_Scon_DRRR,310.3, hit,2,0
646,5, T_Scon, T_Scon_DRRR,361.7, hit,2,0
647,5, T_Scon, T_Scon_DRRR,269.2, hit,2,0
648,5, T_Scon, T_Scon_UGLG,460.3, hit,1,0
649,5, T_Scon, T_Scon_UGLG,263.7, hit,1,0
650,5, T_Sinc, T_Sinc_URRR,351.2, hit,2,0
651,5, T_Scon, T_Scon_UGLG,330.6, hit,1,0
652,5, T_Scon, T_Scon_DRRR,254, hit,2,0
653,5, T_Scon, T_Scon_DRRR,317.5, hit,2,0
654,5, T_Scon, T_Scon_UGLG,264.9, hit,1,0
655,5, T_Scon, T_Scon_DRRR,368.4, hit,2,0
656,5, T_Sinc, T_Sinc_URRR,259.9, hit,2,0
657,5, T_Scon, T_Scon_DRRR,335.2, hit,2,0
658,5, T_Sinc, T_Sinc_URRR,302.7, hit,2,0
659,5, T_Scon, T_Scon_UGLG,394.2, hit,1,0
660,5, T_Scon, T_Scon_UGLG,369.5, hit,1,0
661,5, T_Scon, T_Scon_DRRR,329, hit,2,0
662,5, T_Scon, T_Scon_DRRR,372.4, hit,2,0
663,5, T_Sinc, T_Sinc_URRR,299.9, hit,2,0
664,5, T_Sinc, T_Sinc_URRR,331.4, hit,2,0
665,5, T_Sinc, T_Sinc_DGLG,454.7, hit,1,0
666,5, T_Scon, T_Scon_UGLG,462.2, hit,1,0
667,5, T_Sinc, T_Sinc_URRR,413.6, hit,2,0
668,5, T_Scon, T_Scon_UGLG,337.1, hit,1,0
669,5, T_Sinc, T_Sinc_URRR,368.5, hit,2,0
670,5, T_Sinc, T_Sinc_URRR,403.9, hit,2,0
671,5, T_Scon, T_Scon_UGLG,307.4, incorrect,2,1
672,5, T_Sinc, T_Sinc_URRR,278.9, hit,2,0
673,5, T_Sinc, T_Sinc_URRR,362.2, hit,2,0
674,5, T_Sinc, T_Sinc_DGLG,337.7, hit,1,0
675,5, T_Sinc, T_Sinc_URRR,429.1, hit,2,0
676,5, T_Scon, T_Scon_UGLG,444.6, hit,1,0
677,5, T_Scon, T_Scon_UGLG,324, hit,1,0
678,5, T_Scon, T_Scon_DRRR,443.4, hit,2,0
679,5, T_Sinc, T_Sinc_DGLG,374.9, hit,1,0
680,5, T_Scon, T_Scon_UGLG,390.4, hit,1,0
681,5, T_Scon, T_Scon_UGLG,273.7, hit,1,0
682,5, T_Scon, T_Scon_UGLG,405.2, hit,1,0
683,5, T_Sinc, T_Sinc_DGLG,424.6, hit,1,0
684,5, T_Sinc, T_Sinc_URRR,339.9, hit,2,0
685,5, T_Scon, T_Scon_UGLG,287.2, hit,1,0
686,5, T_Sinc, T_Sinc_DGLG,290.7, hit,1,0
687,5, T_Scon, T_Scon_DRRR,350, hit,2,0
688,5, T_Sinc, T_Sinc_DGLG,313.5, hit,1,0
689,5, T_Sinc, T_Sinc_URRR,357, hit,2,0
690,5, T_Sinc, T_Sinc_URRR,304.4, hit,2,0
691,5, T_Sinc, T_Sinc_DGLG,307.9, hit,1,0
692,5, T_Sinc, T_Sinc_URRR,399.2, hit,2,0
693,5, T_Sinc, T_Sinc_DGLG,378.7, incorrect,2,1
694,5, T_Sinc, T_Sinc_DGLG,398.1, incorrect,2,1
695,5, T_Sinc, T_Sinc_URRR,337.6, hit,2,0
696,5, T_Scon, T_Scon_UGLG,365, hit,1,0
697,5, T_Scon, T_Scon_UGLG,392.4, hit,1,0
698,5, T_Scon, T_Scon_DRRR,299.9, hit,2,0
699,5, T_Scon, T_Scon_DRRR,319.3, hit,2,0
700,5, T_Scon, T_Scon_UGLG,410.7, hit,1,0
701,5, T_Scon, T_Scon_DRRR,322.2, hit,2,0
702,5, T_Scon, T_Scon_DRRR,269.6, hit,2,0
703,5, T_Sinc, T_Sinc_DGLG,425.1, hit,1,0
704,5, T_Scon, T_Scon_UGLG,332.5, hit,1,0
705,5, T_Scon, T_Scon_DRRR,367.9, hit,2,0
706,5, T_Sinc, T_Sinc_URRR,407.4, hit,2,0
707,5, T_Sinc, T_Sinc_DGLG,326.8, hit,1,0
708,5, T_Sinc, T_Sinc_URRR,354.2, hit,2,0
709,5, T_Scon, T_Scon_DRRR,437.7, hit,2,0
710,5, T_Scon, T_Scon_UGLG,257.1, hit,1,0
711,5, T_Sinc, T_Sinc_URRR,352.6, hit,2,0
712,5, T_Scon, T_Scon_UGLG,316, hit,1,0
713,5, T_Scon, T_Scon_DRRR,319.4, hit,2,0
714,5, T_Sinc, T_Sinc_DGLG,514.9, hit,1,0
715,5, T_Sinc, T_Sinc_URRR,406.3, hit,2,0
716,5, T_Sinc, T_Sinc_DGLG,481.7, hit,1,0
717,5, T_Sinc, T_Sinc_URRR,377.2, hit,2,0
718,5, T_Sinc, T_Sinc_DGLG,448.6, hit,1,0
719,5, T_Scon, T_Scon_DRRR,428.1, hit,2,0
720,6, T_Scon, T_Scon_UGLG,372.3, hit,1,0
721,6, T_Scon, T_Scon_UGLG,355.6, hit,1,0
722,6, T_Scon, T_Scon_UGLG,339.1, hit,1,0
723,6, T_Sinc, T_Sinc_URRR,366.5, hit,2,0
724,6, T_Sinc, T_Sinc_URRR,385.9, hit,2,0
725,6, T_Sinc, T_Sinc_URRR,353.4, hit,2,0
726,6, T_Scon, T_Scon_UGLG,372.8, incorrect,2,1
727,6, T_Sinc, T_Sinc_DGLG,360.3, hit,1,0
728,6, T_Scon, T_Scon_UGLG,251.6, hit,1,0
729,6, T_Sinc, T_Sinc_DGLG,327.1, hit,1,0
730,6, T_Scon, T_Scon_DRRR,362.6, hit,2,0
731,6, T_Scon, T_Scon_DRRR,430, hit,2,0
732,6, T_Scon, T_Scon_DRRR,361.5, hit,2,0
733,6, T_Scon, T_Scon_UGLG,348.8, hit,1,0
734,6, T_Sinc, T_Sinc_DGLG,280.3, hit,1,0
735,6, T_Sinc, T_Sinc_DGLG,403.8, hit,1,0
736,6, T_Sinc, T_Sinc_DGLG,335.1, hit,1,0
737,6, T_Sinc, T_Sinc_URRR,258.7, hit,2,0
738,6, T_Scon, T_Scon_UGLG,366, hit,1,0
739,6, T_Sinc, T_Sinc_DGLG,309.5, hit,1,0
740,6, T_Scon, T_Scon_UGLG,265, hit,1,0
741,6, T_Sinc, T_Sinc_DGLG,364.3, incorrect,2,1
742,6, T_Sinc, T_Sinc_DGLG,423.8, hit,1,0
743,6, T_Scon, T_Scon_DRRR,391.3, hit,2,0
744,6, T_Sinc, T_Sinc_URRR,314.7, hit,2,0
745,6, T_Sinc, T_Sinc_DGLG,318.1, hit,1,0
746,6, T_Sinc, T_Sinc_DGLG,389.6, hit,1,0
747,6, T_Scon, T_Scon_DRRR,377, hit,2,0
748,6, T_Scon, T_Scon_DRRR,444.5, hit,2,0
749,6, T_Scon, T_Scon_UGLG,391.8, hit,1,0
750,6, T_Scon, T_Scon_DRRR,403.3, hit,2,0
751,6, T_Scon, T_Scon_UGLG,382.7, hit,1,0
752,6, T_Sinc, T_Sinc_DGLG,310.2, hit,1,0
753,6, T_Scon, T_Scon_DRRR,377.6, hit,2,0
754,6, T_Scon, T_Scon_UGLG,325, hit,1,0
755,6, T_Scon, T_Scon_DRRR,424.5, hit,2,0
756,6, T_Scon, T_Scon_DRRR,387.7, hit,2,0
757,6, T_Sinc, T_Sinc_DGLG,375.1, hit,1,0
758,6, T_Scon, T_Scon_UGLG,322.5, hit,1,0
759,6, T_Sinc, T_Sinc_URRR,342, hit,2,0
760,6, T_Scon, T_Scon_UGLG,313.3, hit,1,0
761,6, T_Sinc, T_Sinc_URRR,328.8, hit,2,0
762,6, T_Sinc, T_Sinc_DGLG,436.3, hit,1,0
763,6, T_Sinc, T_Sinc_DGLG,335.7, hit,1,0
764,6, T_Sinc, T_Sinc_DGLG,355.1, hit,1,0
765,6, T_Scon, T_Scon_DRRR,334.5, hit,2,0
766,6, T_Scon, T_Scon_UGLG,370, hit,1,0
767,6, T_Sinc, T_Sinc_URRR,277.5, hit,2,0
768,6, T_Sinc, T_Sinc_URRR,352.8, hit,2,0
769,6, T_Sinc, T_Sinc_URRR,348.3, hit,2,0
770,6, T_Scon, T_Scon_DRRR,631.7, hit,2,2
771,6, T_Scon, T_Scon_DRRR,403.2, hit,2,0
772,6, T_Sinc, T_Sinc_DGLG,406.7, hit,1,0
773,6, T_Sinc, T_Sinc_URRR,334, hit,2,0
774,6, T_Sinc, T_Sinc_DGLG,321.5, hit,1,0
775,6, T_Scon, T_Scon_UGLG,329, hit,1,0
776,6, T_Sinc, T_Sinc_URRR,388.3, hit,2,0
777,6, T_Sinc, T_Sinc_DGLG,359.8, incorrect,2,1
778,6, T_Scon, T_Scon_DRRR,335.2, hit,2,0
779,6, T_Sinc, T_Sinc_URRR,394.7, hit,2,0
780,6, T_Scon, T_Scon_DRRR,378.1, hit,2,0
781,6, T_Scon, T_Scon_DRRR,405.5, hit,2,0
782,6, T_Sinc, T_Sinc_URRR,393, hit,2,0
783,6, T_Scon, T_Scon_DRRR,340.5, hit,2,0
784,6, T_Sinc, T_Sinc_URRR,311.8, hit,2,0
785,6, T_Scon, T_Scon_DRRR,395.3, hit,2,0
786,6, T_Sinc, T_Sinc_URRR,366.8, hit,2,0
787,6, T_Sinc, T_Sinc_DGLG,342.2, hit,1,0
788,6, T_Scon, T_Scon_UGLG,401.6, hit,1,0
789,6, T_Scon, T_Scon_DRRR,365.1, hit,2,0
790,6, T_Scon, T_Scon_DRRR,396.5, hit,2,0
791,6, T_Scon, T_Scon_UGLG,388, hit,1,0
792,6, T_Sinc, T_Sinc_DGLG,451.2, hit,1,0
793,6, T_Sinc, T_Sinc_URRR,270.6, hit,2,0
794,6, T_Sinc, T_Sinc_DGLG,362, hit,1,0
795,6, T_Scon, T_Scon_UGLG,341.4, hit,1,0
796,6, T_Scon, T_Scon_DRRR,328.8, hit,2,0
797,6, T_Sinc, T_Sinc_DGLG,332.3, hit,1,0
798,6, T_Sinc, T_Sinc_DGLG,383.8, hit,1,0
799,6, T_Scon, T_Scon_DRRR,287.1, hit,2,0
800,6, T_Sinc, T_Sinc_URRR,318.6, hit,2,0
801,6, T_Sinc, T_Sinc_DGLG,374, hit,1,0
802,6, T_Scon, T_Scon_UGLG,393.4, hit,1,0
803,6, T_Scon, T_Scon_UGLG,264.9, hit,1,0
804,6, T_Sinc, T_Sinc_DGLG,372.3, hit,1,0
805,6, T_Sinc, T_Sinc_DGLG,439.8, hit,1,0
806,6, T_Scon, T_Scon_UGLG,351.2, hit,1,0
807,6, T_Sinc, T_Sinc_DGLG,350.6, hit,1,0
808,6, T_Sinc, T_Sinc_DGLG,338.1, hit,1,0
809,6, T_Scon, T_Scon_UGLG,393.5, hit,1,0
810,6, T_Sinc, T_Sinc_URRR,437, hit,2,0
811,6, T_Scon, T_Scon_UGLG,424.4, hit,1,0
812,6, T_Scon, T_Scon_DRRR,327.8, incorrect,1,1
813,6, T_Scon, T_Scon_UGLG,359.3, hit,1,0
814,6, T_Scon, T_Scon_UGLG,342.8, hit,1,0
815,6, T_Sinc, T_Sinc_URRR,394.1, hit,2,0
816,6, T_Sinc, T_Sinc_URRR,313.6, hit,2,0
817,6, T_Sinc, T_Sinc_DGLG,393, hit,1,0
818,6, T_Scon, T_Scon_DRRR,436.5, hit,2,0
819,6, T_Scon, T_Scon_DRRR,355.9, hit,2,0
820,6, T_Scon, T_Scon_DRRR,343.3, hit,2,0
821,6, T_Scon, T_Scon_UGLG,394.8, hit,1,0
822,6, T_Scon, T_Scon_UGLG,494.2, hit,1,0
823,6, T_Sinc, T_Sinc_DGLG,325.7, hit,1,0
824,6, T_Scon, T_Scon_UGLG,321.1, hit,1,0
825,6, T_Sinc, T_Sinc_URRR,420.5, hit,2,0
826,6, T_Sinc, T_Sinc_URRR,264, hit,2,0
827,6, T_Scon, T_Scon_UGLG,435.4, hit,1,0
828,6, T_Scon, T_Scon_UGLG,418.5, hit,1,0
829,6, T_Scon, T_Scon_DRRR,342, hit,2,0
830,6, T_Scon, T_Scon_UGLG,357.4, hit,1,0
831,6, T_Sinc, T_Sinc_URRR,368.8, hit,2,0
832,6, T_Sinc, T_Sinc_URRR,372.3, hit,2,0
833,6, T_Sinc, T_Sinc_URRR,299.7, hit,2,0
834,6, T_Sinc, T_Sinc_URRR,315.1, hit,2,0
835,6, T_Scon, T_Scon_DRRR,370.6, hit,2,0
836,6, T_Sinc, T_Sinc_DGLG,358, hit,1,0
837,6, T_Scon, T_Scon_DRRR,345.5, hit,2,0
838,6, T_Scon, T_Scon_DRRR,296.8, hit,2,0
839,6, T_Sinc, T_Sinc_DGLG,384.3, hit,1,0
840,6, T_Scon, T_Scon_UGLG,383.8, hit,1,0
841,6, T_Sinc, T_Sinc_DGLG,363.2, hit,1,0
842,6, T_Sinc, T_Sinc_DGLG,390.6, hit,1,0
843,6, T_Sinc, T_Sinc_URRR,410, hit,2,0
844,6, T_Scon, T_Scon_DRRR,321.5, hit,2,0
845,6, T_Scon, T_Scon_UGLG,340.9, hit,1,0
846,6, T_Sinc, T_Sinc_URRR,316.4, hit,2,0
847,6, T_Scon, T_Scon_DRRR,375.8, hit,2,0
848,6, T_Scon, T_Scon_DRRR,363.3, hit,2,0
849,6, T_Sinc, T_Sinc_DGLG,386.7, hit,1,0
850,6, T_Sinc, T_Sinc_DGLG,322.2, hit,1,0
851,6, T_Scon, T_Scon_DRRR,413.5, hit,2,0
852,6, T_Scon, T_Scon_UGLG,525, hit,1,0
853,6, T_Sinc, T_Sinc_URRR,272.5, hit,2,0
854,6, T_Sinc, T_Sinc_URRR,335.9, hit,2,0
855,6, T_Sinc, T_Sinc_URRR,299.3, hit,2,0
856,6, T_Scon, T_Scon_UGLG,386.7, hit,1,0
857,6, T_Sinc, T_Sinc_URRR,286.2, hit,2,0
858,6, T_Scon, T_Scon_UGLG,277.6, incorrect,2,1
859,6, T_Sinc, T_Sinc_URRR,345.1, hit,2,0
860,6, T_Scon, T_Scon_DRRR,372.5, hit,2,0
861,6, T_Sinc, T_Sinc_URRR,363.9, hit,2,0
862,6, T_Sinc, T_Sinc_URRR,347.3, hit,2,0
863,6, T_Scon, T_Scon_DRRR,382.8, hit,2,0
864,7, T_Sinc, T_Sinc_URRR,366.4, hit,2,0
865,7, T_Scon, T_Scon_UGLG,361.9, hit,1,0
866,7, T_Scon, T_Scon_UGLG,345.2, hit,1,0
867,7, T_Scon, T_Scon_DRRR,332.8, hit,2,0
868,7, T_Sinc, T_Sinc_DGLG,316.1, hit,1,0
869,7, T_Scon, T_Scon_UGLG,343.6, hit,1,0
870,7, T_Sinc, T_Sinc_DGLG,363, hit,1,0
871,7, T_Sinc, T_Sinc_URRR,382.4, hit,2,0
872,7, T_Sinc, T_Sinc_URRR,329.9, hit,2,0
873,7, T_Scon, T_Scon_DRRR,349.3, hit,2,0
874,7, T_Sinc, T_Sinc_URRR,340.8, incorrect,1,1
875,7, T_Scon, T_Scon_DRRR,360.1, hit,2,0
876,7, T_Scon, T_Scon_DRRR,319.6, hit,2,0
877,7, T_Sinc, T_Sinc_URRR,327.1, hit,2,0
878,7, T_Sinc, T_Sinc_DGLG,498.5, hit,1,0
879,7, T_Sinc, T_Sinc_DGLG,277.9, hit,1,0
880,7, T_Scon, T_Scon_DRRR,369.4, hit,2,0
881,7, T_Scon, T_Scon_UGLG,316.8, hit,1,0
882,7, T_Sinc, T_Sinc_URRR,364.2, hit,2,0
883,7, T_Scon, T_Scon_UGLG,447.6, hit,1,0
884,7, T_Scon, T_Scon_DRRR,347.1, hit,2,0
885,7, T_Sinc, T_Sinc_URRR,406.6, hit,2,0
886,7, T_Scon, T_Scon_UGLG,458, hit,1,0
887,7, T_Scon, T_Scon_DRRR,389.4, hit,2,0
888,7, T_Sinc, T_Sinc_URRR,412.8, hit,2,0
889,7, T_Scon, T_Scon_DRRR,432.3, hit,2,0
890,7, T_Sinc, T_Sinc_URRR,411.8, hit,2,0
891,7, T_Sinc, T_Sinc_DGLG,479.1, hit,1,0
892,7, T_Sinc, T_Sinc_URRR,394.6, hit,2,0
893,7, T_Scon, T_Scon_UGLG,366.1, hit,1,0
894,7, T_Scon, T_Scon_DRRR,301.5, hit,2,0
895,7, T_Scon, T_Scon_DRRR,384.9, hit,2,0
896,7, T_Sinc, T_Sinc_DGLG,500.3, hit,1,0
897,7, T_Sinc, T_Sinc_DGLG,515.8, hit,1,0
898,7, T_Sinc, T_Sinc_DGLG,359.2, hit,1,0
899,7, T_Scon, T_Scon_DRRR,410.6, hit,2,0
900,7, T_Scon, T_Scon_DRRR,417.8, hit,2,0
901,7, T_Sinc, T_Sinc_DGLG,357.3, hit,1,0
902,7, T_Sinc, T_Sinc_URRR,320.6, hit,2,0
903,7, T_Sinc, T_Sinc_DGLG,444.1, hit,1,0
904,7, T_Scon, T_Scon_DRRR,339.5, hit,2,0
905,7, T_Sinc, T_Sinc_URRR,375, hit,2,0
906,7, T_Scon, T_Scon_UGLG,498.4, hit,1,0
907,7, T_Sinc, T_Sinc_DGLG,429.8, hit,1,0
908,7, T_Scon, T_Scon_UGLG,385.2, hit,1,0
909,7, T_Scon, T_Scon_UGLG,368.8, hit,1,0
910,7, T_Sinc, T_Sinc_URRR,348.1, hit,2,0
911,7, T_Scon, T_Scon_DRRR,295.6, hit,2,0
912,7, T_Scon, T_Scon_DRRR,367, hit,2,0
913,7, T_Sinc, T_Sinc_DGLG,398.5, hit,1,0
914,7, T_Scon, T_Scon_DRRR,333.9, hit,2,0
915,7, T_Sinc, T_Sinc_URRR,305.3, hit,2,0
916,7, T_Sinc, T_Sinc_DGLG,484.8, hit,1,0
917,7, T_Sinc, T_Sinc_DGLG,368.3, hit,1,0
918,7, T_Sinc, T_Sinc_URRR,347.7, hit,2,0
919,7, T_Sinc, T_Sinc_URRR,331.1, hit,2,0
920,7, T_Scon, T_Scon_UGLG,446.5, hit,1,0
921,7, T_Scon, T_Scon_DRRR,450, hit,2,0
922,7, T_Scon, T_Scon_UGLG,397.4, hit,1,0
923,7, T_Scon, T_Scon_DRRR,348.8, hit,2,0
924,7, T_Sinc, T_Sinc_URRR,432.3, hit,2,0
925,7, T_Sinc, T_Sinc_URRR,263.8, hit,2,0
926,7, T_Sinc, T_Sinc_DGLG,379.2, hit,1,0
927,7, T_Scon, T_Scon_DRRR,270.6, hit,2,0
928,7, T_Scon, T_Scon_UGLG,290, hit,1,0
929,7, T_Sinc, T_Sinc_DGLG,165.5, incorrect,2,1
930,7, T_Sinc, T_Sinc_URRR,344.9, hit,2,0
931,7, T_Scon, T_Scon_UGLG,364.3, hit,1,0
932,7, T_Scon, T_Scon_DRRR,339.8, hit,2,0
933,7, T_Sinc, T_Sinc_URRR,335.3, hit,2,0
934,7, T_Scon, T_Scon_UGLG,270.7, hit,1,0
935,7, T_Sinc, T_Sinc_DGLG,370.1, hit,1,0
936,7, T_Sinc, T_Sinc_DGLG,425.3, hit,1,0
937,7, T_Scon, T_Scon_DRRR,356.7, hit,2,0
938,7, T_Scon, T_Scon_DRRR,340.1, hit,2,0
939,7, T_Sinc, T_Sinc_URRR,419.6, hit,2,0
940,7, T_Sinc, T_Sinc_URRR,371.1, hit,2,0
941,7, T_Scon, T_Scon_UGLG,326.4, incorrect,2,1
942,7, T_Scon, T_Scon_UGLG,305.9, hit,1,0
943,7, T_Scon, T_Scon_UGLG,405.3, hit,1,0
944,7, T_Sinc, T_Sinc_DGLG,328.7, hit,1,0
945,7, T_Scon, T_Scon_UGLG,300.1, hit,1,0
946,7, T_Sinc, T_Sinc_DGLG,395.6, hit,1,0
947,7, T_Scon, T_Scon_UGLG,283.1, hit,1,0
948,7, T_Scon, T_Scon_DRRR,350.5, hit,2,0
949,7, T_Scon, T_Scon_UGLG,373.9, hit,1,0
950,7, T_Sinc, T_Sinc_DGLG,441.4, hit,1,0
951,7, T_Scon, T_Scon_DRRR,380.8, hit,2,0
952,7, T_Sinc, T_Sinc_URRR,336.3, hit,2,0
953,7, T_Scon, T_Scon_UGLG,379.6, hit,1,0
954,7, T_Sinc, T_Sinc_URRR,327.1, hit,2,0
955,7, T_Scon, T_Scon_DRRR,394.6, incorrect,1,1
956,7, T_Scon, T_Scon_UGLG,414, hit,1,0
957,7, T_Scon, T_Scon_DRRR,357.4, hit,2,0
958,7, T_Scon, T_Scon_DRRR,408.8, incorrect,1,1
959,7, T_Sinc, T_Sinc_DGLG,412.3, hit,1,0
960,7, T_Sinc, T_Sinc_DGLG,319.8, hit,1,0
961,7, T_Scon, T_Scon_UGLG,423.1, hit,1,0
962,7, T_Sinc, T_Sinc_DGLG,458.6, hit,1,0
963,7, T_Scon, T_Scon_UGLG,330, hit,1,0
964,7, T_Sinc, T_Sinc_URRR,333.5, hit,2,0
965,7, T_Scon, T_Scon_UGLG,472.9, hit,1,0
966,7, T_Scon, T_Scon_DRRR,432.3, hit,2,0
967,7, T_Sinc, T_Sinc_DGLG,395.8, incorrect,2,1
968,7, T_Sinc, T_Sinc_URRR,315.3, hit,2,0
969,7, T_Scon, T_Scon_UGLG,518.6, hit,1,0
970,7, T_Scon, T_Scon_DRRR,358.1, hit,2,0
971,7, T_Sinc, T_Sinc_URRR,501.5, hit,2,0
972,7, T_Scon, T_Scon_DRRR,420.8, hit,2,0
973,7, T_Scon, T_Scon_UGLG,240.1, hit,1,0
974,7, T_Scon, T_Scon_UGLG,379.6, hit,1,0
975,7, T_Sinc, T_Sinc_URRR,383, hit,2,0
976,7, T_Sinc, T_Sinc_URRR,366.4, hit,2,0
977,7, T_Sinc, T_Sinc_URRR,333.9, hit,2,0
978,7, T_Sinc, T_Sinc_DGLG,397.3, hit,1,0
979,7, T_Sinc, T_Sinc_DGLG,468.8, hit,1,0
980,7, T_Scon, T_Scon_DRRR,392.1, hit,2,0
981,7, T_Sinc, T_Sinc_DGLG,387.6, hit,1,0
982,7, T_Scon, T_Scon_UGLG,291.1, hit,1,0
983,7, T_Sinc, T_Sinc_URRR,274.5, hit,2,0
984,7, T_Scon, T_Scon_UGLG,397.9, hit,1,0
985,7, T_Scon, T_Scon_UGLG,521.4, hit,1,0
986,7, T_Sinc, T_Sinc_DGLG,380.8, hit,1,0
987,7, T_Sinc, T_Sinc_URRR,356.3, hit,2,0
988,7, T_Sinc, T_Sinc_URRR,347.7, hit,2,0
989,7, T_Scon, T_Scon_DRRR,415.1, hit,2,0
990,7, T_Sinc, T_Sinc_DGLG,346.5, hit,1,0
991,7, T_Sinc, T_Sinc_DGLG,394, hit,1,0
992,7, T_Scon, T_Scon_UGLG,261.5, hit,1,0
993,7, T_Sinc, T_Sinc_DGLG,380.8, hit,1,0
994,7, T_Sinc, T_Sinc_URRR,364.3, hit,2,0
995,7, T_Sinc, T_Sinc_DGLG,447.7, hit,1,0
996,7, T_Sinc, T_Sinc_URRR,331.2, hit,2,0
997,7, T_Scon, T_Scon_UGLG,426.6, hit,1,0
998,7, T_Scon, T_Scon_UGLG,414, hit,1,0
999,7, T_Sinc, T_Sinc_DGLG,349.5, hit,1,0
1000,7, T_Scon, T_Scon_DRRR,345, hit,2,0
1001,7, T_Scon, T_Scon_DRRR,400.3, hit,2,0
1002,7, T_Sinc, T_Sinc_URRR,319.8, hit,2,0
1003,7, T_Scon, T_Scon_DRRR,339.3, hit,2,0
1004,7, T_Sinc, T_Sinc_DGLG,454.7, hit,1,0
1005,7, T_Scon, T_Scon_UGLG,370.1, hit,1,0
1006,7, T_Scon, T_Scon_DRRR,429.5, hit,2,0
1007,7, T_Sinc, T_Sinc_DGLG,429, hit,1,0
1008,8, T_Scon, T_Scon_UGLG,377.3, incorrect,2,1
1009,8, T_Sinc, T_Sinc_DGLG,356.6, hit,1,0
1010,8, T_Scon, T_Scon_UGLG,312.1, hit,1,0
1011,8, T_Sinc, T_Sinc_DGLG,303.5, hit,1,0
1012,8, T_Sinc, T_Sinc_DGLG,318.9, hit,1,0
1013,8, T_Sinc, T_Sinc_URRR,362.4, hit,2,0
1014,8, T_Scon, T_Scon_DRRR,297.8, hit,2,0
1015,8, T_Sinc, T_Sinc_DGLG,429.3, hit,1,0
1016,8, T_Scon, T_Scon_UGLG,440.7, hit,1,0
1017,8, T_Sinc, T_Sinc_URRR,380.1, hit,2,0
1018,8, T_Scon, T_Scon_UGLG,503.6, hit,1,0
1019,8, T_Sinc, T_Sinc_DGLG,395, hit,1,0
1020,8, T_Scon, T_Scon_UGLG,346.4, hit,1,0
1021,8, T_Scon, T_Scon_DRRR,545.9, hit,2,2
1022,8, T_Sinc, T_Sinc_DGLG,373.3, hit,1,0
1023,8, T_Scon, T_Scon_UGLG,348.8, hit,1,0
1024,8, T_Scon, T_Scon_UGLG,304.2, hit,1,0
1025,8, T_Sinc, T_Sinc_DGLG,379.6, hit,1,0
1026,8, T_Sinc, T_Sinc_URRR,407.1, hit,2,0
1027,8, T_Scon, T_Scon_DRRR,378.5, hit,2,0
1028,8, T_Scon, T_Scon_UGLG,318, hit,1,0
1029,8, T_Sinc, T_Sinc_URRR,285.4, hit,2,0
1030,8, T_Sinc, T_Sinc_URRR,324.8, hit,2,0
1031,8, T_Sinc, T_Sinc_DGLG,352.3, hit,1,0
1032,8, T_Scon, T_Scon_UGLG,411.7, hit,1,0
1033,8, T_Sinc, T_Sinc_DGLG,463.1, hit,1,0
1034,8, T_Sinc, T_Sinc_URRR,306.6, hit,2,0
1035,8, T_Sinc, T_Sinc_DGLG,381.9, incorrect,2,1
1036,8, T_Scon, T_Scon_DRRR,373.4, hit,2,0
1037,8, T_Sinc, T_Sinc_DGLG,448.9, hit,1,0
1038,8, T_Scon, T_Scon_DRRR,356.3, hit,2,0
1039,8, T_Scon, T_Scon_UGLG,407.8, hit,1,0
1040,8, T_Sinc, T_Sinc_DGLG,367.2, hit,1,0
1041,8, T_Scon, T_Scon_UGLG,378.6, hit,1,0
1042,8, T_Sinc, T_Sinc_DGLG,382.1, hit,1,0
1043,8, T_Sinc, T_Sinc_URRR,421.6, hit,2,0
1044,8, T_Scon, T_Scon_DRRR,428.7, hit,2,0
1045,8, T_Scon, T_Scon_DRRR,356.1, hit,2,0
1046,8, T_Sinc, T_Sinc_URRR,343.6, hit,2,0
1047,8, T_Scon, T_Scon_UGLG,387, hit,1,0
1048,8, T_Sinc, T_Sinc_URRR,290.4, hit,2,0
1049,8, T_Scon, T_Scon_UGLG,397.9, hit,1,0
1050,8, T_Scon, T_Scon_UGLG,293.2, hit,1,0
1051,8, T_Scon, T_Scon_DRRR,360.8, hit,2,0
1052,8, T_Sinc, T_Sinc_DGLG,392.1, hit,1,0
1053,8, T_Scon, T_Scon_DRRR,403.6, hit,2,0
1054,8, T_Scon, T_Scon_DRRR,403.1, hit,2,0
1055,8, T_Scon, T_Scon_DRRR,354.4, hit,2,0
1056,8, T_Sinc, T_Sinc_URRR,461.9, hit,2,0
1057,8, T_Sinc, T_Sinc_DGLG,361.4, hit,1,0
1058,8, T_Scon, T_Scon_DRRR,420.8, hit,2,0
1059,8, T_Scon, T_Scon_UGLG,408.2, hit,1,0
1060,8, T_Scon, T_Scon_UGLG,339.6, hit,1,0
1061,8, T_Scon, T_Scon_UGLG,275.1, hit,1,0
1062,8, T_Scon, T_Scon_UGLG,314.6, hit,1,0
1063,8, T_Scon, T_Scon_DRRR,417.9, hit,2,0
1064,8, T_Sinc, T_Sinc_DGLG,321.4, hit,1,0
1065,8, T_Scon, T_Scon_DRRR,524.8, hit,2,0
1066,8, T_Sinc, T_Sinc_DGLG,392.3, hit,1,0
1067,8, T_Scon, T_Scon_DRRR,243.7, incorrect,1,1
1068,8, T_Sinc, T_Sinc_URRR,335.1, hit,2,0
1069,8, T_Sinc, T_Sinc_DGLG,362.6, hit,1,0
1070,8, T_Scon, T_Scon_DRRR,414, hit,2,0
1071,8, T_Sinc, T_Sinc_DGLG,289.5, hit,1,0
1072,8, T_Scon, T_Scon_DRRR,296.9, hit,2,0
1073,8, T_Scon, T_Scon_UGLG,384.3, hit,1,0
1074,8, T_Scon, T_Scon_UGLG,451.8, hit,1,0
1075,8, T_Scon, T_Scon_DRRR,367.2, hit,2,0
1076,8, T_Sinc, T_Sinc_DGLG,366.6, hit,1,0
1077,8, T_Sinc, T_Sinc_URRR,578.1, hit,2,2
1078,8, T_Scon, T_Scon_DRRR,469.5, hit,2,0
1079,8, T_Sinc, T_Sinc_URRR,373, hit,2,0
1080,8, T_Sinc, T_Sinc_URRR,340.1, hit,2,0
1081,8, T_Sinc, T_Sinc_URRR,239.6, hit,2,0
1082,8, T_Sinc, T_Sinc_URRR,358.9, hit,2,0
1083,8, T_Scon, T_Scon_DRRR,362.4, hit,2,0
1084,8, T_Scon, T_Scon_UGLG,461.9, hit,1,0
1085,8, T_Sinc, T_Sinc_URRR,345.3, hit,2,0
1086,8, T_Scon, T_Scon_UGLG,396.7, hit,1,0
1087,8, T_Scon, T_Scon_UGLG,420.2, hit,1,0
1088,8, T_Sinc, T_Sinc_URRR,367.6, hit,2,0
1089,8, T_Sinc, T_Sinc_URRR,275.1, hit,2,0
1090,8, T_Scon, T_Scon_UGLG,454.4, hit,1,0
1091,8, T_Sinc, T_Sinc_DGLG,417.9, hit,1,0
1092,8, T_Scon, T_Scon_DRRR,369.4, hit,2,0
1093,8, T_Sinc, T_Sinc_URRR,716.8, hit,2,2
1094,8, T_Scon, T_Scon_DRRR,416.2, hit,2,0
1095,8, T_Scon, T_Scon_UGLG,375.6, hit,1,0
1096,8, T_Sinc, T_Sinc_URRR,387.1, hit,2,0
1097,8, T_Scon, T_Scon_DRRR,366.6, hit,2,0
1098,8, T_Sinc, T_Sinc_URRR,357.9, hit,2,0
1099,8, T_Sinc, T_Sinc_URRR,381.4, hit,2,0
1100,8, T_Scon, T_Scon_UGLG,456.9, hit,1,0
1101,8, T_Sinc, T_Sinc_DGLG,452.3, hit,1,0
1102,8, T_Scon, T_Scon_DRRR,407.7, hit,2,0
1103,8, T_Sinc, T_Sinc_URRR,411.1, hit,2,0
1104,8, T_Sinc, T_Sinc_URRR,382.6, hit,2,0
1105,8, T_Scon, T_Scon_UGLG,418, hit,1,0
1106,8, T_Scon, T_Scon_DRRR,361.4, hit,2,0
1107,8, T_Sinc, T_Sinc_URRR,380.9, hit,2,0
1108,8, T_Sinc, T_Sinc_URRR,392.3, hit,2,0
1109,8, T_Sinc, T_Sinc_DGLG,551.8, hit,1,2
1110,8, T_Sinc, T_Sinc_DGLG,459.2, hit,1,0
1111,8, T_Scon, T_Scon_DRRR,434.6, hit,2,0
1112,8, T_Sinc, T_Sinc_URRR,398.1, hit,2,0
1113,8, T_Scon, T_Scon_UGLG,449.5, hit,1,0
1114,8, T_Sinc, T_Sinc_DGLG,349, hit,1,0
1115,8, T_Scon, T_Scon_DRRR,380.3, hit,2,0
1116,8, T_Scon, T_Scon_UGLG,339.5, hit,1,0
1117,8, T_Scon, T_Scon_DRRR,426.9, hit,2,0
1118,8, T_Scon, T_Scon_DRRR,302.4, hit,2,0
1119,8, T_Sinc, T_Sinc_DGLG,325.8, hit,1,0
1120,8, T_Scon, T_Scon_UGLG,441.3, hit,1,0
1121,8, T_Scon, T_Scon_DRRR,340.6, hit,2,0
1122,8, T_Sinc, T_Sinc_DGLG,360.1, hit,1,0
1123,8, T_Sinc, T_Sinc_DGLG,507.6, hit,1,0
1124,8, T_Scon, T_Scon_DRRR,319, hit,2,0
1125,8, T_Sinc, T_Sinc_URRR,370.5, hit,2,0
1126,8, T_Sinc, T_Sinc_DGLG,437.8, hit,1,0
1127,8, T_Scon, T_Scon_DRRR,325.3, hit,2,0
1128,8, T_Scon, T_Scon_UGLG,464.7, hit,1,0
1129,8, T_Scon, T_Scon_UGLG,448.1, hit,1,0
1130,8, T_Sinc, T_Sinc_DGLG,363.6, hit,1,0
1131,8, T_Sinc, T_Sinc_DGLG,399, hit,1,0
1132,8, T_Sinc, T_Sinc_URRR,262.5, hit,2,0
1133,8, T_Scon, T_Scon_DRRR,377.8, hit,2,0
1134,8, T_Scon, T_Scon_UGLG,385.3, hit,1,0
1135,8, T_Sinc, T_Sinc_DGLG,356.8, hit,1,0
1136,8, T_Sinc, T_Sinc_DGLG,320.2, hit,1,0
1137,8, T_Scon, T_Scon_UGLG,319.7, hit,1,0
1138,8, T_Sinc, T_Sinc_DGLG,363, hit,1,0
1139,8, T_Sinc, T_Sinc_DGLG,466.5, hit,1,0
1140,8, T_Sinc, T_Sinc_URRR,346, hit,2,0
1141,8, T_Sinc, T_Sinc_DGLG,549.4, hit,1,0
1142,8, T_Sinc, T_Sinc_URRR,400.8, hit,2,0
1143,8, T_Scon, T_Scon_DRRR,432.2, hit,2,0
1144,8, T_Scon, T_Scon_UGLG,387.7, hit,1,0
1145,8, T_Scon, T_Scon_DRRR,343.2, hit,2,0
1146,8, T_Sinc, T_Sinc_URRR,494.5, hit,2,0
1147,8, T_Sinc, T_Sinc_URRR,506, hit,2,0
1148,8, T_Sinc, T_Sinc_URRR,365.5, hit,2,0
1149,8, T_Scon, T_Scon_UGLG,336.9, hit,1,0
1150,8, T_Scon, T_Scon_DRRR,364.3, hit,2,0
1151,8, T_Sinc, T_Sinc_URRR,523.8, hit,2,0
1152,9, T_Scon, T_Scon_DRRR,438.7, hit,2,0
1153,9, T_Sinc, T_Sinc_URRR,354.1, hit,2,0
1154,9, T_Scon, T_Scon_UGLG,413.5, hit,1,0
1155,9, T_Scon, T_Scon_UGLG,329, hit,1,0
1156,9, T_Scon, T_Scon_UGLG,268.4, hit,1,0
1157,9, T_Scon, T_Scon_UGLG,275.8, hit,1,0
1158,9, T_Sinc, T_Sinc_URRR,303.3, hit,2,0
1159,9, T_Sinc, T_Sinc_URRR,370.8, hit,2,0
1160,9, T_Scon, T_Scon_DRRR,358.1, hit,2,0
1161,9, T_Scon, T_Scon_UGLG,305.6, hit,1,0
1162,9, T_Scon, T_Scon_UGLG,373, hit,1,0
1163,9, T_Scon, T_Scon_UGLG,316.5, hit,1,0
1164,9, T_Scon, T_Scon_DRRR,503.9, hit,2,0
1165,9, T_Scon, T_Scon_DRRR,435.3, hit,2,0
1166,9, T_Sinc, T_Sinc_DGLG,434.8, hit,1,0
1167,9, T_Sinc, T_Sinc_URRR,334.2, hit,2,0
1168,9, T_Scon, T_Scon_DRRR,417.6, hit,2,0
1169,9, T_Sinc, T_Sinc_DGLG,401, hit,1,0
1170,9, T_Scon, T_Scon_DRRR,412.5, hit,2,0
1171,9, T_Sinc, T_Sinc_URRR,356, hit,2,0
1172,9, T_Scon, T_Scon_UGLG,303.4, incorrect,2,1
1173,9, T_Scon, T_Scon_DRRR,402.8, hit,2,0
1174,9, T_Scon, T_Scon_DRRR,354.3, hit,2,0
1175,9, T_Sinc, T_Sinc_URRR,309.7, hit,2,0
1176,9, T_Sinc, T_Sinc_URRR,341.2, hit,2,0
1177,9, T_Sinc, T_Sinc_DGLG,432.5, hit,1,0
1178,9, T_Scon, T_Scon_UGLG,296, hit,1,0
1179,9, T_Sinc, T_Sinc_DGLG,339.5, hit,1,0
1180,9, T_Scon, T_Scon_DRRR,438.9, hit,2,0
1181,9, T_Scon, T_Scon_UGLG,402.3, hit,1,0
1182,9, T_Scon, T_Scon_DRRR,437.8, hit,2,0
1183,9, T_Scon, T_Scon_DRRR,401.2, hit,2,0
1184,9, T_Sinc, T_Sinc_URRR,660.7, hit,2,2
1185,9, T_Sinc, T_Sinc_URRR,408, hit,2,0
1186,9, T_Sinc, T_Sinc_DGLG,319.5, incorrect,2,1
1187,9, T_Scon, T_Scon_UGLG,363, hit,1,0
1188,9, T_Sinc, T_Sinc_URRR,426.1, hit,2,0
1189,9, T_Sinc, T_Sinc_DGLG,469.6, hit,1,0
1190,9, T_Sinc, T_Sinc_DGLG,313, hit,1,0
1191,9, T_Sinc, T_Sinc_DGLG,328.4, hit,1,0
1192,9, T_Scon, T_Scon_DRRR,359.8, hit,2,0
1193,9, T_Scon, T_Scon_UGLG,403.3, hit,1,0
1194,9, T_Sinc, T_Sinc_URRR,322.8, hit,2,0
1195,9, T_Sinc, T_Sinc_DGLG,386.1, hit,1,0
1196,9, T_Sinc, T_Sinc_URRR,357.6, hit,2,0
1197,9, T_Scon, T_Scon_DRRR,297, hit,2,0
1198,9, T_Sinc, T_Sinc_URRR,380.5, hit,2,0
1199,9, T_Scon, T_Scon_UGLG,443.9, hit,1,0
1200,9, T_Sinc, T_Sinc_DGLG,471.3, hit,1,0
1201,9, T_Sinc, T_Sinc_DGLG,338.8, hit,1,0
1202,9, T_Scon, T_Scon_DRRR,542.3, hit,2,2
1203,9, T_Scon, T_Scon_DRRR,533.6, hit,2,0
1204,9, T_Scon, T_Scon_DRRR,377.1, hit,2,0
1205,9, T_Scon, T_Scon_DRRR,320.5, hit,2,0
1206,9, T_Sinc, T_Sinc_URRR,420, hit,2,0
1207,9, T_Sinc, T_Sinc_DGLG,439.4, hit,1,0
1208,9, T_Sinc, T_Sinc_URRR,442.8, hit,2,0
1209,9, T_Scon, T_Scon_DRRR,378.3, hit,2,0
1210,9, T_Sinc, T_Sinc_DGLG,377.7, hit,1,0
1211,9, T_Sinc, T_Sinc_DGLG,325.2, hit,1,0
1212,9, T_Sinc, T_Sinc_DGLG,336.5, hit,1,0
1213,9, T_Scon, T_Scon_DRRR,432, hit,2,0
1214,9, T_Sinc, T_Sinc_DGLG,427.5, hit,1,0
1215,9, T_Sinc, T_Sinc_URRR,486.9, hit,2,0
1216,9, T_Sinc, T_Sinc_URRR,326.3, hit,2,0
1217,9, T_Sinc, T_Sinc_URRR,345.7, hit,2,0
1218,9, T_Scon, T_Scon_UGLG,301.2, hit,1,0
1219,9, T_Scon, T_Scon_UGLG,340.7, hit,1,0
1220,9, T_Scon, T_Scon_UGLG,256, incorrect,2,1
1221,9, T_Sinc, T_Sinc_URRR,307.5, hit,2,0
1222,9, T_Scon, T_Scon_DRRR,335, hit,2,0
1223,9, T_Scon, T_Scon_DRRR,366.4, hit,2,0
1224,9, T_Scon, T_Scon_DRRR,381.5, hit,2,0
1225,9, T_Sinc, T_Sinc_DGLG,349, hit,1,0
1226,9, T_Scon, T_Scon_UGLG,300.5, hit,1,0
1227,9, T_Sinc, T_Sinc_DGLG,319.9, hit,1,0
1228,9, T_Sinc, T_Sinc_URRR,371.3, hit,2,0
1229,9, T_Sinc, T_Sinc_DGLG,470.7, hit,1,0
1230,9, T_Sinc, T_Sinc_DGLG,362.1, hit,1,0
1231,9, T_Scon, T_Scon_UGLG,357.6, hit,1,0
1232,9, T_Sinc, T_Sinc_URRR,377, hit,2,0
1233,9, T_Scon, T_Scon_DRRR,352.5, hit,2,0
1234,9, T_Scon, T_Scon_UGLG,324, hit,1,0
1235,9, T_Scon, T_Scon_DRRR,371.3, hit,2,0
1236,9, T_Scon, T_Scon_DRRR,358.8, hit,2,0
1237,9, T_Sinc, T_Sinc_DGLG,270.2, hit,1,0
1238,9, T_Scon, T_Scon_UGLG,361.7, hit,1,0
1239,9, T_Sinc, T_Sinc_DGLG,365.1, hit,1,0
1240,9, T_Sinc, T_Sinc_DGLG,388.5, hit,1,0
1241,9, T_Sinc, T_Sinc_URRR,372, hit,2,0
1242,9, T_Sinc, T_Sinc_DGLG,463.5, hit,1,0
1243,9, T_Scon, T_Scon_UGLG,330.8, hit,1,0
1244,9, T_Sinc, T_Sinc_DGLG,322.3, hit,1,0
1245,9, T_Scon, T_Scon_DRRR,401.7, hit,2,0
1246,9, T_Scon, T_Scon_DRRR,461.2, hit,2,0
1247,9, T_Scon, T_Scon_DRRR,496.6, hit,2,0
1248,9, T_Sinc, T_Sinc_DGLG,412, hit,1,0
1249,9, T_Scon, T_Scon_DRRR,415.5, hit,2,0
1250,9, T_Sinc, T_Sinc_URRR,402.9, hit,2,0
1251,9, T_Scon, T_Scon_UGLG,474.4, hit,1,0
1252,9, T_Sinc, T_Sinc_DGLG,381.7, hit,1,0
1253,9, T_Scon, T_Scon_DRRR,461.2, hit,2,0
1254,9, T_Scon, T_Scon_DRRR,476.7, hit,2,0
1255,9, T_Sinc, T_Sinc_DGLG,524, hit,1,0
1256,9, T_Sinc, T_Sinc_URRR,359.5, hit,2,0
1257,9, T_Scon, T_Scon_UGLG,382.9, hit,1,0
1258,9, T_Sinc, T_Sinc_URRR,386.4, hit,2,0
1259,9, T_Scon, T_Scon_UGLG,493.9, incorrect,2,1
1260,9, T_Scon, T_Scon_UGLG,469, hit,1,0
1261,9, T_Sinc, T_Sinc_URRR,336.5, hit,2,0
1262,9, T_Scon, T_Scon_DRRR,403.8, hit,2,0
1263,9, T_Sinc, T_Sinc_DGLG,407.3, hit,1,0
1264,9, T_Scon, T_Scon_UGLG,298.7, hit,1,0
1265,9, T_Scon, T_Scon_UGLG,322.1, hit,1,0
1266,9, T_Sinc, T_Sinc_DGLG,413.6, hit,1,0
1267,9, T_Scon, T_Scon_UGLG,313, hit,1,0
1268,9, T_Sinc, T_Sinc_URRR,336.5, hit,2,0
1269,9, T_Scon, T_Scon_UGLG,423.9, hit,1,0
1270,9, T_Scon, T_Scon_DRRR,339.3, hit,2,0
1271,9, T_Sinc, T_Sinc_DGLG,346.8, hit,1,0
1272,9, T_Sinc, T_Sinc_URRR,382.2, hit,2,0
1273,9, T_Scon, T_Scon_DRRR,317.7, hit,2,0
1274,9, T_Sinc, T_Sinc_URRR,413.1, hit,2,0
1275,9, T_Sinc, T_Sinc_DGLG,464.5, incorrect,2,1
1276,9, T_Sinc, T_Sinc_URRR,420, hit,2,0
1277,9, T_Scon, T_Scon_UGLG,347.4, hit,1,0
1278,9, T_Scon, T_Scon_DRRR,414.9, hit,2,0
1279,9, T_Sinc, T_Sinc_DGLG,426.3, hit,1,0
1280,9, T_Sinc, T_Sinc_URRR,413.7, hit,2,0
1281,9, T_Sinc, T_Sinc_URRR,513.2, hit,2,0
1282,9, T_Sinc, T_Sinc_URRR,436.5, hit,2,0
1283,9, T_Scon, T_Scon_UGLG,568, hit,1,2
1284,9, T_Scon, T_Scon_UGLG,351.4, hit,1,0
1285,9, T_Scon, T_Scon_UGLG,618.9, hit,1,2
1286,9, T_Scon, T_Scon_UGLG,366.4, hit,1,0
1287,9, T_Sinc, T_Sinc_DGLG,449.7, hit,1,0
1288,9, T_Scon, T_Scon_UGLG,345.2, hit,1,0
1289,9, T_Sinc, T_Sinc_URRR,332.6, hit,2,0
1290,9, T_Scon, T_Scon_UGLG,404.1, hit,1,0
1291,9, T_Sinc, T_Sinc_URRR,415.5, hit,2,0
1292,9, T_Sinc, T_Sinc_DGLG,522.9, hit,1,0
1293,9, T_Sinc, T_Sinc_URRR,406.4, hit,2,0
1294,9, T_Scon, T_Scon_DRRR,429.9, hit,2,0
1295,9, T_Sinc, T_Sinc_DGLG,421.2, hit,1,0
