trial_index, block, condition, full_condition_code, RT, response_type, response_key, error_outlier
1,1, T_Sinc, T_Sinc_DGLG,524.8, hit,1,0
2,1, T_Sinc, T_Sinc_DGLG,384.2, hit,1,0
3,1, T_Scon, T_Scon_UGLG,327.7, hit,1,0
4,1, T_Sinc, T_Sinc_URRR,331.1, incorrect,1,1
5,1, T_Sinc, T_Sinc_URRR,322.6, hit,2,0
6,1, T_Sinc, T_Sinc_DGLG,378.1, hit,1,0
7,1, T_Sinc, T_Sinc_URRR,381.4, incorrect,1,1
8,1, T_Sinc, T_Sinc_URRR,512.9, hit,2,0
9,1, T_Scon, T_Scon_DRRR,500.4, hit,2,0
10,1, T_Scon, T_Scon_DRRR,355.7, hit,2,0
11,1, T_Sinc, T_Sinc_URRR,447.2, hit,2,0
12,1, T_Sinc, T_Sinc_DGLG,418.6, hit,1,0
13,1, T_Sinc, T_Sinc_DGLG,362.1, hit,1,0
14,1, T_Sinc, T_Sinc_DGLG,357.6, hit,1,0
15,1, T_Sinc, T_Sinc_DGLG,377, hit,1,0
16,1, T_Sinc, T_Sinc_DGLG,324.4, hit,1,0
17,1, T_Sinc, T_Sinc_DGLG,287.8, hit,1,0
18,1, T_Scon, T_Scon_UGLG,419.3, hit,1,0
19,1, T_Sinc, T_Sinc_URRR,470.7, hit,2,0
20,1, T_Sinc, T_Sinc_URRR,294.2, hit,2,0
21,1, T_Sinc, T_Sinc_DGLG,393.6, hit,1,0
22,1, T_Sinc, T_Sinc_URRR,325, hit,2,0
23,1, T_Scon, T_Scon_DRRR,536.5, hit,2,0
24,1, T_Sinc, T_Sinc_URRR,403.9, hit,2,0
25,1, T_Scon, T_Scon_DRRR,547.4, hit,2,0
26,1, T_Sinc, T_Sinc_URRR,430.8, hit,2,0
27,1, T_Sinc, T_Sinc_URRR,338.2, hit,2,0
28,1, T_Sinc, T_Sinc_URRR,333.7, hit,2,0
29,1, T_Sinc, T_Sinc_DGLG,369.1, hit,1,0
30,1, T_Sinc, T_Sinc_DGLG,448.5, hit,1,0
31,1, T_Scon, T_Scon_UGLG,348, hit,1,0
32,1, T_Sinc, T_Sinc_URRR,359.4, hit,2,0
33,1, T_Sinc, T_Sinc_URRR,362.9, hit,2,0
34,1, T_Scon, T_Scon_UGLG,406.3, hit,1,0
35,1, T_Sinc, T_Sinc_DGLG,857.7, hit,1,0
36,1, T_Sinc, T_Sinc_DGLG,365.2, hit,1,0
37,1, T_Sinc, T_Sinc_URRR,512.4, hit,2,0
38,1, T_Sinc, T_Sinc_URRR,395.8, hit,2,0
39,1, T_Sinc, T_Sinc_URRR,311.2, hit,2,0
40,1, T_Sinc, T_Sinc_DGLG,322.7, hit,1,0
41,1, T_Sinc, T_Sinc_URRR,378.1, hit,2,0
42,1, T_Sinc, T_Sinc_DGLG,341.6, hit,1,0
43,1, T_Sinc, T_Sinc_DGLG,353, hit,1,0
44,1, T_Sinc, T_Sinc_DGLG,484.4, hit,1,0
45,1, T_Sinc, T_Sinc_URRR,371.9, hit,2,0
46,1, T_Sinc, T_Sinc_URRR,327.4, hit,2,0
47,1, T_Sinc, T_Sinc_URRR,490.7, hit,2,0
48,1, T_Scon, T_Scon_DRRR,298.2, hit,2,0
49,1, T_Sinc, T_Sinc_URRR,393.7, hit,2,0
50,1, T_Sinc, T_Sinc_URRR,337, hit,2,0
51,1, T_Scon, T_Scon_UGLG,516.5, hit,1,0
52,1, T_Sinc, T_Sinc_URRR,468, hit,2,0
53,1, T_Sinc, T_Sinc_URRR,387.4, hit,2,0
54,1, T_Scon, T_Scon_UGLG,438.8, hit,1,0
55,1, T_Sinc, T_Sinc_DGLG,378.3, hit,1,0
56,1, T_Sinc, T_Sinc_URRR,257.7, hit,2,0
57,1, T_Sinc, T_Sinc_URRR,301.2, hit,2,0
58,1, T_Scon, T_Scon_DRRR,408.7, hit,2,0
59,1, T_Scon, T_Scon_DRRR,360, hit,2,0
60,1, T_Sinc, T_Sinc_DGLG,375.5, hit,1,0
61,1, T_Sinc, T_Sinc_URRR,346.9, hit,2,0
62,1, T_Sinc, T_Sinc_URRR,382.3, hit,2,0
63,1, T_Sinc, T_Sinc_URRR,389.8, hit,2,0
64,1, T_Sinc, T_Sinc_DGLG,333.2, hit,1,0
65,1, T_Sinc, T_Sinc_DGLG,424.7, hit,1,0
66,1, T_Sinc, T_Sinc_URRR,408, hit,2,0
67,1, T_Sinc, T_Sinc_URRR,471.5, hit,2,0
68,1, T_Sinc, T_Sinc_DGLG,567, hit,1,0
69,1, T_Sinc, T_Sinc_DGLG,490.5, hit,1,0
70,1, T_Scon, T_Scon_DRRR,285.8, hit,2,0
71,1, T_Sinc, T_Sinc_DGLG,453.3, hit,1,0
72,1, T_Sinc, T_Sinc_DGLG,404.8, hit,1,0
73,1, T_Sinc, T_Sinc_DGLG,523.9, hit,1,0
74,1, T_Sinc, T_Sinc_DGLG,455.3, hit,1,0
75,1, T_Sinc, T_Sinc_DGLG,270.8, hit,1,0
76,1, T_Scon, T_Scon_DRRR,434.3, hit,2,0
77,1, T_Sinc, T_Sinc_URRR,389.7, hit,2,0
78,1, T_Sinc, T_Sinc_URRR,361.1, hit,2,0
79,1, T_Scon, T_Scon_DRRR,420.6, hit,2,0
80,1, T_Sinc, T_Sinc_URRR,360, hit,2,0
81,1, T_Scon, T_Scon_UGLG,331.4, hit,1,0
82,1, T_Sinc, T_Sinc_URRR,342.8, hit,2,0
83,1, T_Sinc, T_Sinc_URRR,346.3, hit,2,0
84,1, T_Sinc, T_Sinc_URRR,333.7, hit,2,0
85,1, T_Sinc, T_Sinc_URRR,341.2, hit,2,0
86,1, T_Sinc, T_Sinc_URRR,328.6, hit,2,0
87,1, T_Sinc, T_Sinc_URRR,332.1, hit,2,0
88,1, T_Sinc, T_Sinc_DGLG,371.5, hit,1,0
89,1, T_Sinc, T_Sinc_DGLG,607, hit,1,0
90,1, T_Sinc, T_Sinc_DGLG,410.4, hit,1,0
91,1, T_Scon, T_Scon_UGLG,461.8, hit,1,0
92,1, T_Scon, T_Scon_DRRR,553.3, hit,2,0
93,1, T_Scon, T_Scon_UGLG,416.7, hit,1,0
94,1, T_Sinc, T_Sinc_DGLG,408.1, hit,1,0
95,1, T_Scon, T_Scon_UGLG,427.6, hit,1,0
96,1, T_Sinc, T_Sinc_DGLG,411, hit,1,0
97,1, T_Sinc, T_Sinc_DGLG,394.5, hit,1,0
98,1, T_Sinc, T_Sinc_URRR,349.9, hit,2,0
99,1, T_Scon, T_Scon_UGLG,409.3, hit,1,0
100,1, T_Sinc, T_Sinc_DGLG,488.8, hit,1,0
101,1, T_Sinc, T_Sinc_DGLG,316.3, hit,1,0
102,1, T_Sinc, T_Sinc_DGLG,271.7, hit,1,0
103,1, T_Sinc, T_Sinc_URRR,311, hit,2,0
104,1, T_Scon, T_Scon_DRRR,370.6, hit,2,0
105,1, T_Scon, T_Scon_DRRR,278, hit,2,0
106,1, T_Sinc, T_Sinc_URRR,321.4, hit,2,0
107,1, T_Sinc, T_Sinc_URRR,316.8, hit,2,0
108,1, T_Sinc, T_Sinc_DGLG,544.3, hit,1,0
109,1, T_Scon, T_Scon_DRRR,563.5, hit,2,0
110,1, T_Sinc, T_Sinc_DGLG,286.8, hit,1,0
111,1, T_Sinc, T_Sinc_DGLG,310.3, incorrect,2,1
112,1, T_Sinc, T_Sinc_DGLG,401.8, hit,1,0
113,1, T_Sinc, T_Sinc_URRR,345.3, hit,2,0
114,1, T_Sinc, T_Sinc_URRR,360.7, hit,2,0
115,1, T_Scon, T_Scon_UGLG,316.1, hit,1,0
116,1, T_Scon, T_Scon_DRRR,367.6, hit,2,0
117,1, T_Sinc, T_Sinc_DGLG,507, hit,1,0
118,1, T_Sinc, T_Sinc_DGLG,378.5, hit,1,0
119,1, T_Scon, T_Scon_UGLG,373.9, hit,1,0
120,1, T_Scon, T_Scon_DRRR,321.3, hit,2,0
121,1, T_Sinc, T_Sinc_DGLG,460.8, hit,1,0
122,1, T_Sinc, T_Sinc_URRR,452.2, hit,2,0
123,1, T_Scon, T_Scon_UGLG,591.7, hit,1,0
124,1, T_Scon, T_Scon_UGLG,351.1, incorrect,2,1
125,1, T_Scon, T_Scon_UGLG,466.5, hit,1,0
126,1, T_Sinc, T_Sinc_DGLG,346, hit,1,0
127,1, T_Sinc, T_Sinc_URRR,413.5, hit,2,0
128,1, T_Sinc, T_Sinc_DGLG,376.9, hit,1,0
129,1, T_Scon, T_Scon_UGLG,444.3, hit,1,0
130,1, T_Scon, T_Scon_DRRR,415.7, hit,2,0
131,1, T_Sinc, T_Sinc_URRR,583.2, hit,2,0
132,1, T_Sinc, T_Sinc_URRR,454.7, hit,2,0
133,1, T_Sinc, T_Sinc_DGLG,394, hit,1,0
134,1, T_Sinc, T_Sinc_URRR,373.5, hit,2,0
135,1, T_Scon, T_Scon_UGLG,321, hit,1,0
136,1, T_Sinc, T_Sinc_DGLG,288.4, incorrect,2,1
137,1, T_Sinc, T_Sinc_DGLG,491.8, hit,1,0
138,1, T_Sinc, T_Sinc_DGLG,299.3, hit,1,0
139,1, T_Scon, T_Scon_DRRR,430.7, hit,2,0
140,1, T_Sinc, T_Sinc_DGLG,354.2, hit,1,0
141,1, T_Sinc, T_Sinc_URRR,485.6, hit,2,0
142,1, T_Sinc, T_Sinc_URRR,393, hit,2,0
143,1, T_Sinc, T_Sinc_DGLG,324.5, hit,1,0
144,1, T_Sinc, T_Sinc_DGLG,284, hit,1,0
145,2, T_Sinc, T_Sinc_DGLG,469.2, hit,1,0
146,2, T_Sinc, T_Sinc_DGLG,308.5, hit,1,0
147,2, T_Sinc, T_Sinc_DGLG,276, hit,1,0
148,2, T_Sinc, T_Sinc_URRR,311.5, hit,2,0
149,2, T_Sinc, T_Sinc_DGLG,295, hit,1,0
150,2, T_Scon, T_Scon_UGLG,406.3, hit,1,0
151,2, T_Sinc, T_Sinc_URRR,345.8, hit,2,0
152,2, T_Sinc, T_Sinc_DGLG,357.2, hit,1,0
153,2, T_Scon, T_Scon_UGLG,312.7, incorrect,2,1
154,2, T_Sinc, T_Sinc_DGLG,300.1, hit,1,0
155,2, T_Sinc, T_Sinc_DGLG,279.5, hit,1,0
156,2, T_Sinc, T_Sinc_DGLG,315, hit,1,0
157,2, T_Sinc, T_Sinc_DGLG,274.5, hit,1,0
158,2, T_Scon, T_Scon_UGLG,321.9, incorrect,2,1
159,2, T_Scon, T_Scon_DRRR,521.3, hit,2,0
160,2, T_Sinc, T_Sinc_DGLG,356.8, hit,1,0
161,2, T_Sinc, T_Sinc_URRR,432.2, hit,2,0
162,2, T_Sinc, T_Sinc_DGLG,551.7, hit,1,0
163,2, T_Sinc, T_Sinc_URRR,523, hit,2,0
164,2, T_Sinc, T_Sinc_URRR,526.5, hit,2,0
165,2, T_Sinc, T_Sinc_DGLG,242, hit,1,0
166,2, T_Scon, T_Scon_UGLG,373.4, hit,1,0
167,2, T_Sinc, T_Sinc_DGLG,412.8, hit,1,0
168,2, T_Sinc, T_Sinc_URRR,364.3, hit,2,0
169,2, T_Sinc, T_Sinc_DGLG,255.7, hit,1,0
170,2, T_Sinc, T_Sinc_URRR,335.2, hit,2,0
171,2, T_Sinc, T_Sinc_DGLG,250.6, hit,1,0
172,2, T_Sinc, T_Sinc_DGLG,350, hit,1,0
173,2, T_Sinc, T_Sinc_URRR,345.5, hit,2,0
174,2, T_Sinc, T_Sinc_URRR,397, hit,2,0
175,2, T_Sinc, T_Sinc_URRR,304.3, incorrect,1,1
176,2, T_Scon, T_Scon_UGLG,451.8, hit,1,0
177,2, T_Scon, T_Scon_DRRR,411.2, hit,2,0
178,2, T_Sinc, T_Sinc_URRR,422.7, hit,2,0
179,2, T_Sinc, T_Sinc_DGLG,418.1, hit,1,0
180,2, T_Sinc, T_Sinc_DGLG,385.5, hit,1,0
181,2, T_Sinc, T_Sinc_DGLG,512.7, hit,1,0
182,2, T_Sinc, T_Sinc_URRR,308.2, hit,2,0
183,2, T_Scon, T_Scon_DRRR,275.6, incorrect,1,1
184,2, T_Scon, T_Scon_UGLG,327, hit,1,0
185,2, T_Sinc, T_Sinc_DGLG,418.5, hit,1,0
186,2, T_Sinc, T_Sinc_DGLG,830, hit,1,0
187,2, T_Sinc, T_Sinc_URRR,433.4, hit,2,0
188,2, T_Scon, T_Scon_DRRR,316.8, hit,2,0
189,2, T_Sinc, T_Sinc_DGLG,448.3, hit,1,0
190,2, T_Sinc, T_Sinc_DGLG,463.7, hit,1,0
191,2, T_Sinc, T_Sinc_URRR,371.2, hit,2,0
192,2, T_Sinc, T_Sinc_DGLG,374.5, hit,1,0
193,2, T_Sinc, T_Sinc_DGLG,330, hit,1,0
194,2, T_Sinc, T_Sinc_DGLG,333.5, hit,1,0
195,2, T_Sinc, T_Sinc_DGLG,376.8, hit,1,0
196,2, T_Sinc, T_Sinc_URRR,524.3, hit,2,0
197,2, T_Sinc, T_Sinc_DGLG,635.8, hit,1,0
198,2, T_Scon, T_Scon_DRRR,543.2, hit,2,0
199,2, T_Scon, T_Scon_DRRR,478.6, hit,2,0
200,2, T_Sinc, T_Sinc_DGLG,766.1, hit,1,0
201,2, T_Sinc, T_Sinc_URRR,377.5, hit,2,0
202,2, T_Sinc, T_Sinc_URRR,457, hit,2,0
203,2, T_Sinc, T_Sinc_DGLG,508.4, hit,1,0
204,2, T_Sinc, T_Sinc_DGLG,875.8, hit,1,0
205,2, T_Scon, T_Scon_UGLG,415.3, hit,1,0
206,2, T_Sinc, T_Sinc_DGLG,378.7, hit,1,0
207,2, T_Sinc, T_Sinc_URRR,322.1, hit,2,0
208,2, T_Sinc, T_Sinc_DGLG,481.6, hit,1,0
209,2, T_Sinc, T_Sinc_URRR,665, hit,2,0
210,2, T_Sinc, T_Sinc_DGLG,1268.5, hit,1,2
211,2, T_Sinc, T_Sinc_DGLG,483.9, hit,1,0
212,2, T_Scon, T_Scon_UGLG,415.4, hit,1,0
213,2, T_Sinc, T_Sinc_DGLG,458.8, hit,1,0
214,2, T_Sinc, T_Sinc_URRR,574.3, hit,2,0
215,2, T_Sinc, T_Sinc_URRR,613.6, hit,2,0
216,2, T_Sinc, T_Sinc_URRR,621.1, hit,2,0
217,2, T_Sinc, T_Sinc_URRR,460.3, hit,2,0
218,2, T_Sinc, T_Sinc_URRR,375.8, hit,2,0
219,2, T_Sinc, T_Sinc_URRR,403.1, hit,2,0
220,2, T_Sinc, T_Sinc_DGLG,298.6, hit,1,0
221,2, T_Scon, T_Scon_UGLG,354.1, hit,1,0
222,2, T_Sinc, T_Sinc_URRR,485.5, hit,2,0
223,2, T_Sinc, T_Sinc_URRR,352.9, hit,2,0
224,2, T_Sinc, T_Sinc_URRR,328.4, hit,2,0
225,2, T_Sinc, T_Sinc_DGLG,367.8, hit,1,0
226,2, T_Sinc, T_Sinc_URRR,367.3, hit,2,0
227,2, T_Scon, T_Scon_DRRR,458.6, hit,2,0
228,2, T_Scon, T_Scon_DRRR,398.1, hit,2,0
229,2, T_Sinc, T_Sinc_DGLG,465.6, hit,1,0
230,2, T_Scon, T_Scon_UGLG,464.9, hit,1,0
231,2, T_Sinc, T_Sinc_URRR,456.4, hit,2,0
232,2, T_Scon, T_Scon_UGLG,371.9, hit,1,0
233,2, T_Sinc, T_Sinc_DGLG,339.3, hit,1,0
234,2, T_Sinc, T_Sinc_URRR,422.8, hit,2,0
235,2, T_Sinc, T_Sinc_URRR,574.1, hit,2,0
236,2, T_Scon, T_Scon_UGLG,297.6, hit,1,0
237,2, T_Sinc, T_Sinc_URRR,453.1, hit,2,0
238,2, T_Sinc, T_Sinc_URRR,432.5, hit,2,0
239,2, T_Scon, T_Scon_DRRR,412, hit,2,0
240,2, T_Sinc, T_Sinc_URRR,323.4, hit,2,0
241,2, T_Sinc, T_Sinc_URRR,402.8, hit,2,0
242,2, T_Sinc, T_Sinc_DGLG,334.3, hit,1,0
243,2, T_Sinc, T_Sinc_URRR,521.8, hit,2,0
244,2, T_Sinc, T_Sinc_URRR,373.1, hit,2,0
245,2, T_Sinc, T_Sinc_URRR,536.6, hit,2,0
246,2, T_Sinc, T_Sinc_URRR,364.1, hit,2,0
247,2, T_Sinc, T_Sinc_URRR,395.5, hit,2,0
248,2, T_Sinc, T_Sinc_DGLG,630.9, hit,1,0
249,2, T_Sinc, T_Sinc_DGLG,858.3, hit,1,0
250,2, T_Sinc, T_Sinc_URRR,521.8, hit,2,0
251,2, T_Scon, T_Scon_UGLG,541.3, hit,1,0
252,2, T_Sinc, T_Sinc_URRR,504.7, hit,2,0
253,2, T_Sinc, T_Sinc_DGLG,439.9, hit,1,0
254,2, T_Sinc, T_Sinc_URRR,355.3, hit,2,0
255,2, T_Sinc, T_Sinc_DGLG,314.8, hit,1,0
256,2, T_Sinc, T_Sinc_URRR,302.2, hit,2,0
257,2, T_Scon, T_Scon_DRRR,521.7, hit,2,0
258,2, T_Sinc, T_Sinc_DGLG,389.2, hit,1,0
259,2, T_Sinc, T_Sinc_DGLG,488.5, hit,1,0
260,2, T_Scon, T_Scon_UGLG,348, hit,1,0
261,2, T_Scon, T_Scon_UGLG,471.4, hit,1,0
262,2, T_Sinc, T_Sinc_DGLG,538.9, hit,1,0
263,2, T_Sinc, T_Sinc_URRR,410.4, hit,2,0
264,2, T_Scon, T_Scon_UGLG,365.7, hit,1,0
265,2, T_Sinc, T_Sinc_URRR,549.2, hit,2,0
266,2, T_Scon, T_Scon_DRRR,376.7, hit,2,0
267,2, T_Sinc, T_Sinc_DGLG,1116, hit,1,2
268,2, T_Scon, T_Scon_DRRR,359.5, hit,2,0
269,2, T_Scon, T_Scon_DRRR,563, hit,2,0
270,2, T_Sinc, T_Sinc_DGLG,302.4, hit,1,0
271,2, T_Scon, T_Scon_DRRR,601.8, hit,2,0
272,2, T_Scon, T_Scon_UGLG,521.2, hit,1,0
273,2, T_Sinc, T_Sinc_DGLG,372.7, incorrect,2,1
274,2, T_Sinc, T_Sinc_URRR,576.2, hit,2,0
275,2, T_Sinc, T_Sinc_URRR,595.5, hit,2,0
276,2, T_Scon, T_Scon_DRRR,975, hit,2,0
277,2, T_Sinc, T_Sinc_URRR,594.5, hit,2,0
278,2, T_Sinc, T_Sinc_DGLG,961.9, hit,1,2
279,2, T_Scon, T_Scon_DRRR,485.3, hit,2,0
280,2, T_Sinc, T_Sinc_URRR,488.8, hit,2,0
281,2, T_Scon, T_Scon_UGLG,476.2, hit,1,0
282,2, T_Scon, T_Scon_DRRR,375.6, hit,2,0
283,2, T_Sinc, T_Sinc_DGLG,455.1, hit,1,0
284,2, T_Sinc, T_Sinc_URRR,510.5, hit,2,0
285,2, T_Scon, T_Scon_DRRR,542, hit,2,0
286,2, T_Sinc, T_Sinc_URRR,353.4, hit,2,0
287,2, T_Sinc, T_Sinc_DGLG,508.8, hit,1,0
288,2, T_Sinc, T_Sinc_URRR,572.3, hit,2,0
289,3, T_Sinc, T_Sinc_URRR,539.8, hit,2,0
290,3, T_Sinc, T_Sinc_URRR,403.2, hit,2,0
291,3, T_Scon, T_Scon_DRRR,298.6, incorrect,1,1
292,3, T_Sinc, T_Sinc_URRR,394.1, hit,2,0
293,3, T_Sinc, T_Sinc_URRR,357.5, hit,2,0
294,3, T_Scon, T_Scon_UGLG,381, hit,1,0
295,3, T_Sinc, T_Sinc_DGLG,308.4, hit,1,0
296,3, T_Sinc, T_Sinc_DGLG,407.8, hit,1,0
297,3, T_Scon, T_Scon_UGLG,363.3, hit,1,0
298,3, T_Sinc, T_Sinc_URRR,938.6, hit,2,2
299,3, T_Scon, T_Scon_UGLG,886.1, hit,1,0
300,3, T_Sinc, T_Sinc_URRR,537.6, hit,2,0
301,3, T_Sinc, T_Sinc_DGLG,421, hit,1,0
302,3, T_Scon, T_Scon_DRRR,360.5, incorrect,1,1
303,3, T_Sinc, T_Sinc_URRR,347.8, hit,2,0
304,3, T_Sinc, T_Sinc_DGLG,399.3, hit,1,0
305,3, T_Sinc, T_Sinc_DGLG,398.8, hit,1,0
306,3, T_Sinc, T_Sinc_DGLG,322.3, hit,1,0
307,3, T_Scon, T_Scon_UGLG,493.7, hit,1,0
308,3, T_Scon, T_Scon_UGLG,1061, hit,1,2
309,3, T_Sinc, T_Sinc_DGLG,372.5, hit,1,0
310,3, T_Sinc, T_Sinc_URRR,408, hit,2,0
311,3, T_Sinc, T_Sinc_URRR,359.5, hit,2,0
312,3, T_Sinc, T_Sinc_URRR,390.8, hit,2,0
313,3, T_Sinc, T_Sinc_URRR,286.3, hit,2,0
314,3, T_Scon, T_Scon_UGLG,425.8, hit,1,0
315,3, T_Sinc, T_Sinc_URRR,357.2, hit,2,0
316,3, T_Sinc, T_Sinc_DGLG,512.7, hit,1,0
317,3, T_Scon, T_Scon_UGLG,248.1, incorrect,2,1
318,3, T_Scon, T_Scon_UGLG,411.5, hit,1,0
319,3, T_Sinc, T_Sinc_DGLG,367, hit,1,0
320,3, T_Sinc, T_Sinc_DGLG,330.5, hit,1,0
321,3, T_Sinc, T_Sinc_URRR,509.8, hit,2,0
322,3, T_Sinc, T_Sinc_URRR,365.3, hit,2,0
323,3, T_Sinc, T_Sinc_DGLG,368.7, hit,1,0
324,3, T_Sinc, T_Sinc_URRR,500.2, hit,2,0
325,3, T_Sinc, T_Sinc_DGLG,439.3, hit,1,0
326,3, T_Sinc, T_Sinc_DGLG,346.8, hit,1,0
327,3, T_Sinc, T_Sinc_DGLG,334.2, hit,1,0
328,3, T_Scon, T_Scon_UGLG,329.6, hit,1,0
329,3, T_Scon, T_Scon_UGLG,457.1, hit,1,0
330,3, T_Sinc, T_Sinc_DGLG,344.5, hit,1,0
331,3, T_Sinc, T_Sinc_DGLG,1452, hit,1,2
332,3, T_Sinc, T_Sinc_URRR,523.4, hit,2,0
333,3, T_Sinc, T_Sinc_DGLG,470.8, hit,1,0
334,3, T_Sinc, T_Sinc_URRR,490.3, hit,2,0
335,3, T_Scon, T_Scon_DRRR,337.8, hit,2,0
336,3, T_Sinc, T_Sinc_URRR,589.1, hit,2,0
337,3, T_Sinc, T_Sinc_URRR,400.6, hit,2,0
338,3, T_Sinc, T_Sinc_DGLG,396.1, hit,1,0
339,3, T_Sinc, T_Sinc_URRR,439.5, hit,2,0
340,3, T_Sinc, T_Sinc_URRR,434.9, hit,2,0
341,3, T_Scon, T_Scon_UGLG,390.3, hit,1,0
342,3, T_Sinc, T_Sinc_DGLG,697.8, hit,1,0
343,3, T_Scon, T_Scon_DRRR,425.3, hit,2,0
344,3, T_Sinc, T_Sinc_DGLG,1044.7, hit,1,2
345,3, T_Sinc, T_Sinc_DGLG,336.1, hit,1,0
346,3, T_Scon, T_Scon_UGLG,475.6, hit,1,0
347,3, T_Scon, T_Scon_UGLG,343, hit,1,0
348,3, T_Sinc, T_Sinc_URRR,414.5, hit,2,0
349,3, T_Sinc, T_Sinc_URRR,609.9, hit,2,0
350,3, T_Sinc, T_Sinc_URRR,473.3, hit,2,0
351,3, T_Sinc, T_Sinc_DGLG,508.8, hit,1,0
352,3, T_Sinc, T_Sinc_DGLG,744.2, hit,1,0
353,3, T_Sinc, T_Sinc_DGLG,315.6, hit,1,0
354,3, T_Sinc, T_Sinc_URRR,467, hit,2,0
355,3, T_Scon, T_Scon_DRRR,486.5, hit,2,0
356,3, T_Scon, T_Scon_DRRR,578, hit,2,0
357,3, T_Sinc, T_Sinc_DGLG,981.4, hit,1,2
358,3, T_Sinc, T_Sinc_DGLG,368.8, hit,1,0
359,3, T_Sinc, T_Sinc_URRR,380.3, hit,2,0
360,3, T_Sinc, T_Sinc_DGLG,459.8, hit,1,0
361,3, T_Sinc, T_Sinc_URRR,459, hit,2,0
362,3, T_Sinc, T_Sinc_URRR,334.3, hit,2,0
363,3, T_Sinc, T_Sinc_DGLG,301.8, hit,1,0
364,3, T_Sinc, T_Sinc_URRR,369.3, hit,2,0
365,3, T_Scon, T_Scon_DRRR,396.7, hit,2,0
366,3, T_Sinc, T_Sinc_URRR,400.1, hit,2,0
367,3, T_Scon, T_Scon_UGLG,339.5, incorrect,2,1
368,3, T_Sinc, T_Sinc_DGLG,367, hit,1,0
369,3, T_Sinc, T_Sinc_URRR,314.4, hit,2,0
370,3, T_Sinc, T_Sinc_DGLG,581.8, hit,1,0
371,3, T_Sinc, T_Sinc_DGLG,445.3, hit,1,0
372,3, T_Sinc, T_Sinc_DGLG,1008.8, hit,1,2
373,3, T_Scon, T_Scon_DRRR,496.1, hit,2,0
374,3, T_Sinc, T_Sinc_DGLG,607.6, hit,1,0
375,3, T_Scon, T_Scon_DRRR,635.1, hit,2,0
376,3, T_Sinc, T_Sinc_DGLG,674.5, hit,1,0
377,3, T_Sinc, T_Sinc_URRR,534, hit,2,0
378,3, T_Scon, T_Scon_UGLG,461.4, hit,1,0
379,3, T_Sinc, T_Sinc_URRR,416.8, hit,2,0
380,3, T_Sinc, T_Sinc_DGLG,756.3, hit,1,0
381,3, T_Sinc, T_Sinc_URRR,543.7, hit,2,0
382,3, T_Sinc, T_Sinc_DGLG,475.1, hit,1,0
383,3, T_Sinc, T_Sinc_DGLG,534.6, hit,1,0
384,3, T_Sinc, T_Sinc_DGLG,426, hit,1,0
385,3, T_Sinc, T_Sinc_DGLG,461.5, hit,1,0
386,3, T_Sinc, T_Sinc_DGLG,608.9, hit,1,0
387,3, T_Sinc, T_Sinc_URRR,484.3, hit,2,0
388,3, T_Sinc, T_Sinc_DGLG,479.8, hit,1,0
389,3, T_Scon, T_Scon_UGLG,391.2, hit,1,0
390,3, T_Sinc, T_Sinc_DGLG,586.6, hit,1,0
391,3, T_Scon, T_Scon_DRRR,466.1, hit,2,0
392,3, T_Sinc, T_Sinc_URRR,453.6, hit,2,0
393,3, T_Sinc, T_Sinc_URRR,392.9, hit,2,0
394,3, T_Sinc, T_Sinc_URRR,996.4, hit,2,2
395,3, T_Sinc, T_Sinc_URRR,507.9, hit,2,0
396,3, T_Scon, T_Scon_DRRR,403.3, hit,2,0
397,3, T_Scon, T_Scon_DRRR,402.4, incorrect,1,1
398,3, T_Sinc, T_Sinc_URRR,345.9, hit,2,0
399,3, T_Scon, T_Scon_DRRR,245.4, hit,2,0
400,3, T_Sinc, T_Sinc_DGLG,448.8, hit,1,0
401,3, T_Sinc, T_Sinc_URRR,408.2, hit,2,0
402,3, T_Sinc, T_Sinc_URRR,351.6, hit,2,0
403,3, T_Sinc, T_Sinc_URRR,371.1, hit,2,0
404,3, T_Scon, T_Scon_DRRR,478.5, hit,2,0
405,3, T_Sinc, T_Sinc_DGLG,481.9, hit,1,0
406,3, T_Sinc, T_Sinc_DGLG,469.4, hit,1,0
407,3, T_Scon, T_Scon_UGLG,1224.9, hit,1,2
408,3, T_Sinc, T_Sinc_DGLG,136.2, hit,1,0
409,3, T_Sinc, T_Sinc_DGLG,439.7, hit,1,0
410,3, T_Sinc, T_Sinc_DGLG,379.2, hit,1,0
411,3, T_Sinc, T_Sinc_URRR,538.6, hit,2,0
412,3, T_Sinc, T_Sinc_URRR,510, hit,2,0
413,3, T_Scon, T_Scon_UGLG,557.5, hit,1,0
414,3, T_Sinc, T_Sinc_URRR,836.9, hit,2,0
415,3, T_Sinc, T_Sinc_URRR,528.4, hit,2,0
416,3, T_Scon, T_Scon_DRRR,499.8, hit,2,0
417,3, T_Sinc, T_Sinc_DGLG,463.2, hit,1,0
418,3, T_Sinc, T_Sinc_DGLG,498.7, hit,1,0
419,3, T_Scon, T_Scon_DRRR,558.1, hit,2,0
420,3, T_Sinc, T_Sinc_URRR,797.5, hit,2,0
421,3, T_Scon, T_Scon_DRRR,401, hit,2,0
422,3, T_Sinc, T_Sinc_URRR,648.4, hit,2,0
423,3, T_Sinc, T_Sinc_URRR,387.9, hit,2,0
424,3, T_Sinc, T_Sinc_URRR,571.4, hit,2,0
425,3, T_Sinc, T_Sinc_URRR,450.7, hit,2,0
426,3, T_Sinc, T_Sinc_DGLG,1062.2, hit,1,2
427,3, T_Sinc, T_Sinc_URRR,553.7, hit,2,0
428,3, T_Sinc, T_Sinc_DGLG,1061, hit,1,2
429,3, T_Sinc, T_Sinc_DGLG,344.5, hit,1,0
430,3, T_Sinc, T_Sinc_URRR,999.9, hit,2,2
431,3, T_Sinc, T_Sinc_DGLG,731.4, hit,1,0
432,3, T_Scon, T_Scon_DRRR,502.9, hit,2,0
433,4, T_Sinc, T_Sinc_URRR,531.7, hit,2,0
434,4, T_Scon, T_Scon_UGLG,347.2, incorrect,2,1
435,4, T_Scon, T_Scon_UGLG,446.7, hit,1,0
436,4, T_Sinc, T_Sinc_URRR,466.1, incorrect,1,1
437,4, T_Sinc, T_Sinc_DGLG,401.5, hit,1,0
438,4, T_Sinc, T_Sinc_URRR,365, hit,2,0
439,4, T_Scon, T_Scon_DRRR,476.4, hit,2,0
440,4, T_Sinc, T_Sinc_URRR,1303.8, hit,2,2
441,4, T_Scon, T_Scon_DRRR,551.3, hit,2,0
442,4, T_Scon, T_Scon_UGLG,866.7, hit,1,0
443,4, T_Scon, T_Scon_DRRR,278.1, hit,2,0
444,4, T_Sinc, T_Sinc_URRR,361.5, hit,2,0
445,4, T_Sinc, T_Sinc_DGLG,449, hit,1,0
446,4, T_Sinc, T_Sinc_DGLG,844.5, hit,1,0
447,4, T_Sinc, T_Sinc_DGLG,319.9, hit,1,0
448,4, T_Sinc, T_Sinc_URRR,343.4, hit,2,0
449,4, T_Scon, T_Scon_UGLG,498.8, hit,1,0
450,4, T_Scon, T_Scon_DRRR,406.2, hit,2,0
451,4, T_Scon, T_Scon_UGLG,537.7, hit,1,0
452,4, T_Scon, T_Scon_DRRR,477.2, hit,2,0
453,4, T_Scon, T_Scon_DRRR,644.5, hit,2,0
454,4, T_Scon, T_Scon_UGLG,400, hit,1,0
455,4, T_Scon, T_Scon_UGLG,739.4, hit,1,0
456,4, T_Scon, T_Scon_DRRR,486.9, hit,2,0
457,4, T_Sinc, T_Sinc_URRR,518.3, hit,2,0
458,4, T_Scon, T_Scon_UGLG,517.7, hit,1,0
459,4, T_Scon, T_Scon_UGLG,533.2, hit,1,0
460,4, T_Scon, T_Scon_UGLG,1392.7, hit,1,2
461,4, T_Scon, T_Scon_DRRR,632, hit,2,0
462,4, T_Scon, T_Scon_UGLG,251.5, hit,1,0
463,4, T_Scon, T_Scon_DRRR,559, hit,2,0
464,4, T_Scon, T_Scon_UGLG,558.4, hit,1,0
465,4, T_Sinc, T_Sinc_DGLG,489.8, hit,1,0
466,4, T_Scon, T_Scon_UGLG,357.3, hit,1,0
467,4, T_Scon, T_Scon_UGLG,352.7, hit,1,0
468,4, T_Scon, T_Scon_DRRR,564.2, hit,2,0
469,4, T_Scon, T_Scon_DRRR,547.3, hit,2,0
470,4, T_Sinc, T_Sinc_URRR,322.7, hit,2,0
471,4, T_Scon, T_Scon_UGLG,390.2, hit,1,0
472,4, T_Scon, T_Scon_UGLG,345.7, incorrect,2,1
473,4, T_Scon, T_Scon_UGLG,541, hit,1,0
474,4, T_Sinc, T_Sinc_URRR,432.5, hit,2,0
475,4, T_Scon, T_Scon_DRRR,504, hit,2,0
476,4, T_Scon, T_Scon_UGLG,747.3, hit,1,0
477,4, T_Scon, T_Scon_DRRR,498.8, hit,2,0
478,4, T_Scon, T_Scon_DRRR,414.3, hit,2,0
479,4, T_Scon, T_Scon_UGLG,569.7, hit,1,0
480,4, T_Scon, T_Scon_DRRR,573.1, hit,2,0
481,4, T_Scon, T_Scon_UGLG,484.6, hit,1,0
482,4, T_Sinc, T_Sinc_DGLG,680, hit,1,0
483,4, T_Scon, T_Scon_UGLG,507.5, hit,1,0
484,4, T_Sinc, T_Sinc_DGLG,742.9, hit,1,0
485,4, T_Sinc, T_Sinc_URRR,546.3, hit,2,0
486,4, T_Scon, T_Scon_DRRR,397.8, hit,2,0
487,4, T_Scon, T_Scon_DRRR,377.3, hit,2,0
488,4, T_Scon, T_Scon_UGLG,172.7, incorrect,2,1
489,4, T_Scon, T_Scon_UGLG,300, hit,1,0
490,4, T_Scon, T_Scon_UGLG,931.5, hit,1,0
491,4, T_Scon, T_Scon_UGLG,383, hit,1,0
492,4, T_Scon, T_Scon_UGLG,442.5, hit,1,0
493,4, T_Scon, T_Scon_UGLG,541.8, hit,1,0
494,4, T_Sinc, T_Sinc_DGLG,533.3, hit,1,0
495,4, T_Scon, T_Scon_DRRR,652.8, hit,2,0
496,4, T_Scon, T_Scon_UGLG,480.2, hit,1,0
497,4, T_Sinc, T_Sinc_URRR,619.6, hit,2,0
498,4, T_Scon, T_Scon_DRRR,559.1, hit,2,0
499,4, T_Sinc, T_Sinc_URRR,418.5, hit,2,0
500,4, T_Scon, T_Scon_DRRR,485.9, hit,2,0
501,4, T_Scon, T_Scon_UGLG,457.4, hit,1,0
502,4, T_Scon, T_Scon_UGLG,380.8, hit,1,0
503,4, T_Scon, T_Scon_DRRR,328.3, hit,2,0
504,4, T_Scon, T_Scon_DRRR,455.7, hit,2,0
505,4, T_Scon, T_Scon_DRRR,498.8, hit,2,0
506,4, T_Sinc, T_Sinc_DGLG,346.3, hit,1,0
507,4, T_Scon, T_Scon_DRRR,357.8, hit,2,0
508,4, T_Scon, T_Scon_UGLG,881.2, hit,1,0
509,4, T_Sinc, T_Sinc_DGLG,644.6, hit,1,0
510,4, T_Scon, T_Scon_UGLG,464.1, hit,1,0
511,4, T_Sinc, T_Sinc_URRR,631.5, hit,2,0
512,4, T_Scon, T_Scon_DRRR,603, hit,2,0
513,4, T_Scon, T_Scon_UGLG,578.3, hit,1,0
514,4, T_Scon, T_Scon_DRRR,565.8, hit,2,0
515,4, T_Scon, T_Scon_DRRR,545.3, hit,2,0
516,4, T_Sinc, T_Sinc_URRR,392.8, incorrect,1,1
517,4, T_Sinc, T_Sinc_DGLG,1188.1, hit,1,2
518,4, T_Scon, T_Scon_DRRR,383.6, hit,2,0
519,4, T_Scon, T_Scon_DRRR,523, hit,2,0
520,4, T_Scon, T_Scon_UGLG,1234.5, hit,1,2
521,4, T_Scon, T_Scon_UGLG,462, hit,1,0
522,4, T_Scon, T_Scon_DRRR,429.3, hit,2,0
523,4, T_Scon, T_Scon_UGLG,424.8, hit,1,0
524,4, T_Scon, T_Scon_UGLG,300.3, hit,1,0
525,4, T_Scon, T_Scon_DRRR,283.7, hit,2,0
526,4, T_Scon, T_Scon_DRRR,839.2, hit,2,0
527,4, T_Scon, T_Scon_DRRR,714.6, hit,2,0
528,4, T_Scon, T_Scon_DRRR,1294, hit,2,2
529,4, T_Scon, T_Scon_DRRR,437.5, hit,2,0
530,4, T_Scon, T_Scon_UGLG,580.9, hit,1,0
531,4, T_Scon, T_Scon_DRRR,448.4, hit,2,0
532,4, T_Scon, T_Scon_DRRR,451.8, hit,2,0
533,4, T_Scon, T_Scon_DRRR,563.2, hit,2,0
534,4, T_Scon, T_Scon_UGLG,762.7, hit,1,0
535,4, T_Scon, T_Scon_DRRR,0.2, miss,2535321,1
536,4, T_Scon, T_Scon_UGLG,433.5, hit,1,0
537,4, T_Scon, T_Scon_DRRR,485, hit,2,0
538,4, T_Sinc, T_Sinc_URRR,332.5, incorrect,1,1
539,4, T_Scon, T_Scon_DRRR,343.9, hit,2,0
540,4, T_Sinc, T_Sinc_DGLG,715.3, hit,1,0
541,4, T_Scon, T_Scon_UGLG,418.5, hit,1,0
542,4, T_Scon, T_Scon_UGLG,325.9, hit,1,0
543,4, T_Sinc, T_Sinc_URRR,529.4, hit,2,0
544,4, T_Scon, T_Scon_DRRR,512.8, hit,2,0
545,4, T_Scon, T_Scon_DRRR,792.2, hit,2,0
546,4, T_Scon, T_Scon_UGLG,499.7, hit,1,0
547,4, T_Scon, T_Scon_DRRR,463.2, hit,2,0
548,4, T_Scon, T_Scon_DRRR,0.1, miss,2999789,1
549,4, T_Scon, T_Scon_UGLG,0.1, miss,3018954,1
550,4, T_Scon, T_Scon_DRRR,0.1, miss,3039119,1
551,4, T_Sinc, T_Sinc_DGLG,1112.8, incorrect,2,1
552,4, T_Scon, T_Scon_UGLG,532.3, hit,1,0
553,4, T_Sinc, T_Sinc_DGLG,383.8, hit,1,0
554,4, T_Scon, T_Scon_UGLG,319.2, hit,1,0
555,4, T_Sinc, T_Sinc_DGLG,338.6, hit,1,0
556,4, T_Sinc, T_Sinc_DGLG,406.1, hit,1,0
557,4, T_Sinc, T_Sinc_URRR,377.6, hit,2,0
558,4, T_Scon, T_Scon_DRRR,481, hit,2,0
559,4, T_Scon, T_Scon_UGLG,396.4, hit,1,0
560,4, T_Scon, T_Scon_UGLG,411.8, hit,1,0
561,4, T_Scon, T_Scon_DRRR,407.3, hit,2,0
562,4, T_Scon, T_Scon_DRRR,582.7, hit,2,0
563,4, T_Scon, T_Scon_DRRR,1010.2, hit,2,2
564,4, T_Scon, T_Scon_DRRR,565.6, hit,2,0
565,4, T_Sinc, T_Sinc_DGLG,577, hit,1,0
566,4, T_Scon, T_Scon_UGLG,392.5, incorrect,2,1
567,4, T_Scon, T_Scon_UGLG,427.9, hit,1,0
568,4, T_Sinc, T_Sinc_URRR,511.3, hit,2,0
569,4, T_Scon, T_Scon_DRRR,358.8, hit,2,0
570,4, T_Scon, T_Scon_UGLG,538.3, hit,1,0
571,4, T_Scon, T_Scon_UGLG,753.6, hit,1,0
572,4, T_Scon, T_Scon_DRRR,501.1, hit,2,0
573,4, T_Sinc, T_Sinc_DGLG,388.6, hit,1,0
574,4, T_Scon, T_Scon_DRRR,328, incorrect,1,1
575,4, T_Scon, T_Scon_UGLG,719.4, hit,1,0
576,4, T_Scon, T_Scon_UGLG,402.8, hit,1,0
577,5, T_Scon, T_Scon_DRRR,443.5, incorrect,1,1
578,5, T_Scon, T_Scon_DRRR,331, hit,2,0
579,5, T_Scon, T_Scon_DRRR,366.4, hit,2,0
580,5, T_Sinc, T_Sinc_URRR,337.8, incorrect,1,1
581,5, T_Sinc, T_Sinc_DGLG,433.3, hit,1,0
582,5, T_Scon, T_Scon_DRRR,432.8, hit,2,0
583,5, T_Scon, T_Scon_UGLG,1428.1, hit,1,2
584,5, T_Scon, T_Scon_DRRR,527.6, hit,2,0
585,5, T_Scon, T_Scon_UGLG,395, hit,1,0
586,5, T_Scon, T_Scon_UGLG,446.5, hit,1,0
587,5, T_Scon, T_Scon_UGLG,357.9, hit,1,0
588,5, T_Sinc, T_Sinc_URRR,473.3, hit,2,0
589,5, T_Scon, T_Scon_UGLG,560.8, hit,1,0
590,5, T_Scon, T_Scon_DRRR,312.3, hit,2,0
591,5, T_Sinc, T_Sinc_URRR,503.6, hit,2,0
592,5, T_Scon, T_Scon_DRRR,339.1, hit,2,0
593,5, T_Scon, T_Scon_DRRR,306.6, hit,2,0
594,5, T_Scon, T_Scon_UGLG,706, hit,1,0
595,5, T_Sinc, T_Sinc_DGLG,381.5, hit,1,0
596,5, T_Sinc, T_Sinc_URRR,640.8, hit,2,0
597,5, T_Scon, T_Scon_UGLG,388.3, hit,1,0
598,5, T_Scon, T_Scon_UGLG,335.8, incorrect,2,1
599,5, T_Scon, T_Scon_DRRR,371.1, hit,2,0
600,5, T_Sinc, T_Sinc_DGLG,310.6, hit,1,0
601,5, T_Sinc, T_Sinc_URRR,722.1, hit,2,0
602,5, T_Scon, T_Scon_UGLG,301.5, incorrect,2,1
603,5, T_Scon, T_Scon_UGLG,424.9, hit,1,0
604,5, T_Scon, T_Scon_UGLG,348.4, hit,1,0
605,5, T_Scon, T_Scon_DRRR,443.8, hit,2,0
606,5, T_Scon, T_Scon_DRRR,367.3, hit,2,0
607,5, T_Scon, T_Scon_DRRR,378.8, hit,2,0
608,5, T_Scon, T_Scon_DRRR,370.1, hit,2,0
609,5, T_Scon, T_Scon_UGLG,381.6, hit,1,0
610,5, T_Scon, T_Scon_UGLG,373, hit,1,0
611,5, T_Sinc, T_Sinc_DGLG,336.5, hit,1,0
612,5, T_Scon, T_Scon_DRRR,415.9, hit,2,0
613,5, T_Scon, T_Scon_DRRR,639.1, hit,2,0
614,5, T_Scon, T_Scon_DRRR,334.5, hit,2,0
615,5, T_Scon, T_Scon_UGLG,378, hit,1,0
616,5, T_Scon, T_Scon_DRRR,421.4, hit,2,0
617,5, T_Sinc, T_Sinc_DGLG,440.8, hit,1,0
618,5, T_Scon, T_Scon_DRRR,472.3, hit,2,0
619,5, T_Sinc, T_Sinc_DGLG,399.8, incorrect,2,1
620,5, T_Sinc, T_Sinc_URRR,419.2, hit,2,0
621,5, T_Scon, T_Scon_DRRR,434.6, hit,2,0
622,5, T_Sinc, T_Sinc_DGLG,338.1, hit,1,0
623,5, T_Sinc, T_Sinc_URRR,453.5, hit,2,0
624,5, T_Scon, T_Scon_DRRR,416.9, hit,2,0
625,5, T_Scon, T_Scon_UGLG,360.4, hit,1,0
626,5, T_Scon, T_Scon_UGLG,399.8, hit,1,0
627,5, T_Sinc, T_Sinc_URRR,423.2, hit,2,0
628,5, T_Scon, T_Scon_UGLG,422.6, hit,1,0
629,5, T_Scon, T_Scon_UGLG,394.1, hit,1,0
630,5, T_Scon, T_Scon_DRRR,357.6, hit,2,0
631,5, T_Sinc, T_Sinc_DGLG,829, incorrect,2,1
632,5, T_Sinc, T_Sinc_DGLG,504.5, incorrect,2,1
633,5, T_Scon, T_Scon_DRRR,531.8, incorrect,1,1
634,5, T_Sinc, T_Sinc_DGLG,603.3, hit,1,0
635,5, T_Scon, T_Scon_UGLG,446.8, hit,1,0
636,5, T_Scon, T_Scon_DRRR,426.2, hit,2,0
637,5, T_Scon, T_Scon_UGLG,349.6, hit,1,0
638,5, T_Scon, T_Scon_UGLG,373.1, hit,1,0
639,5, T_Scon, T_Scon_DRRR,272.6, hit,2,0
640,5, T_Scon, T_Scon_UGLG,515.9, hit,1,0
641,5, T_Scon, T_Scon_UGLG,423.4, hit,1,0
642,5, T_Scon, T_Scon_UGLG,386.8, hit,1,0
643,5, T_Sinc, T_Sinc_DGLG,378.3, hit,1,0
644,5, T_Scon, T_Scon_UGLG,593.7, hit,1,0
645,5, T_Scon, T_Scon_DRRR,393.1, hit,2,0
646,5, T_Scon, T_Scon_UGLG,368.6, hit,1,0
647,5, T_Scon, T_Scon_UGLG,396.1, hit,1,0
648,5, T_Scon, T_Scon_UGLG,555.4, hit,1,0
649,5, T_Sinc, T_Sinc_DGLG,490.6, hit,1,0
650,5, T_Scon, T_Scon_UGLG,366.1, incorrect,2,1
651,5, T_Scon, T_Scon_UGLG,393.5, incorrect,2,1
652,5, T_Scon, T_Scon_DRRR,340.9, hit,2,0
653,5, T_Sinc, T_Sinc_DGLG,400.4, hit,1,0
654,5, T_Scon, T_Scon_DRRR,467.9, hit,2,0
655,5, T_Scon, T_Scon_DRRR,363.2, hit,2,0
656,5, T_Scon, T_Scon_DRRR,298.7, hit,2,0
657,5, T_Scon, T_Scon_UGLG,462.2, hit,1,0
658,5, T_Scon, T_Scon_DRRR,417.6, hit,2,0
659,5, T_Sinc, T_Sinc_URRR,393, hit,2,0
660,5, T_Sinc, T_Sinc_URRR,356.4, hit,2,0
661,5, T_Scon, T_Scon_DRRR,327.9, hit,2,0
662,5, T_Scon, T_Scon_UGLG,371.4, hit,1,0
663,5, T_Scon, T_Scon_UGLG,806.7, hit,1,0
664,5, T_Sinc, T_Sinc_DGLG,286.2, hit,1,0
665,5, T_Scon, T_Scon_DRRR,437.7, hit,2,0
666,5, T_Scon, T_Scon_DRRR,365.1, hit,2,0
667,5, T_Scon, T_Scon_DRRR,328.5, hit,2,0
668,5, T_Scon, T_Scon_DRRR,288, hit,2,0
669,5, T_Scon, T_Scon_DRRR,291.4, hit,2,0
670,5, T_Scon, T_Scon_UGLG,478.9, hit,1,0
671,5, T_Scon, T_Scon_DRRR,474.2, hit,2,0
672,5, T_Scon, T_Scon_UGLG,733.7, hit,1,0
673,5, T_Scon, T_Scon_DRRR,561.2, hit,2,0
674,5, T_Sinc, T_Sinc_URRR,324.6, incorrect,1,1
675,5, T_Sinc, T_Sinc_URRR,416, hit,2,0
676,5, T_Scon, T_Scon_DRRR,299.5, hit,2,0
677,5, T_Scon, T_Scon_DRRR,374.9, hit,2,0
678,5, T_Scon, T_Scon_DRRR,418.4, hit,2,0
679,5, T_Scon, T_Scon_UGLG,377.9, hit,1,0
680,5, T_Scon, T_Scon_UGLG,421.2, hit,1,0
681,5, T_Scon, T_Scon_DRRR,400.7, hit,2,0
682,5, T_Scon, T_Scon_DRRR,276.2, hit,2,0
683,5, T_Sinc, T_Sinc_DGLG,435.6, hit,1,0
684,5, T_Sinc, T_Sinc_DGLG,459, hit,1,0
685,5, T_Scon, T_Scon_UGLG,386.2, hit,1,0
686,5, T_Sinc, T_Sinc_URRR,309.7, hit,2,0
687,5, T_Scon, T_Scon_UGLG,465, hit,1,0
688,5, T_Scon, T_Scon_UGLG,412.5, hit,1,0
689,5, T_Scon, T_Scon_UGLG,316, hit,1,0
690,5, T_Scon, T_Scon_DRRR,327.4, hit,2,0
691,5, T_Scon, T_Scon_UGLG,370.9, hit,1,0
692,5, T_Scon, T_Scon_UGLG,446.2, hit,1,0
693,5, T_Sinc, T_Sinc_URRR,545.7, hit,2,0
694,5, T_Scon, T_Scon_DRRR,397.2, incorrect,1,1
695,5, T_Scon, T_Scon_DRRR,492.6, hit,2,0
696,5, T_Scon, T_Scon_UGLG,368, hit,1,0
697,5, T_Scon, T_Scon_DRRR,599.5, hit,2,0
698,5, T_Sinc, T_Sinc_URRR,554.9, hit,2,0
699,5, T_Scon, T_Scon_DRRR,566.3, hit,2,0
700,5, T_Scon, T_Scon_DRRR,393.8, hit,2,0
701,5, T_Sinc, T_Sinc_DGLG,577.2, hit,1,0
702,5, T_Sinc, T_Sinc_DGLG,348.7, incorrect,2,1
703,5, T_Scon, T_Scon_UGLG,376.1, hit,1,0
704,5, T_Scon, T_Scon_DRRR,435.5, hit,2,0
705,5, T_Scon, T_Scon_UGLG,783, hit,1,0
706,5, T_Scon, T_Scon_UGLG,394.4, hit,1,0
707,5, T_Sinc, T_Sinc_URRR,453.9, hit,2,0
708,5, T_Scon, T_Scon_UGLG,401.4, hit,1,0
709,5, T_Scon, T_Scon_UGLG,780.7, hit,1,0
710,5, T_Scon, T_Scon_DRRR,432.2, hit,2,0
711,5, T_Sinc, T_Sinc_URRR,563.7, hit,2,0
712,5, T_Scon, T_Scon_DRRR,419.1, hit,2,0
713,5, T_Scon, T_Scon_UGLG,358.5, hit,1,0
714,5, T_Scon, T_Scon_UGLG,382, incorrect,2,1
715,5, T_Scon, T_Scon_UGLG,377.4, hit,1,0
716,5, T_Scon, T_Scon_DRRR,412.9, hit,2,0
717,5, T_Scon, T_Scon_UGLG,416.2, hit,1,0
718,5, T_Scon, T_Scon_DRRR,483.7, hit,2,0
719,5, T_Scon, T_Scon_UGLG,1123.2, hit,1,2
720,5, T_Sinc, T_Sinc_URRR,262.6, incorrect,1,1
721,6, T_Scon, T_Scon_UGLG,420, hit,1,0
722,6, T_Scon, T_Scon_DRRR,291.4, hit,2,0
723,6, T_Scon, T_Scon_UGLG,310.9, incorrect,2,1
724,6, T_Scon, T_Scon_UGLG,358.3, hit,1,0
725,6, T_Scon, T_Scon_DRRR,457.8, hit,2,0
726,6, T_Scon, T_Scon_UGLG,317.2, hit,1,0
727,6, T_Scon, T_Scon_UGLG,320.6, hit,1,0
728,6, T_Scon, T_Scon_UGLG,348.1, hit,1,0
729,6, T_Sinc, T_Sinc_URRR,471.6, hit,2,0
730,6, T_Scon, T_Scon_DRRR,390.9, hit,2,0
731,6, T_Scon, T_Scon_DRRR,854.4, hit,2,0
732,6, T_Scon, T_Scon_UGLG,405.9, hit,1,0
733,6, T_Sinc, T_Sinc_URRR,649.3, hit,2,0
734,6, T_Sinc, T_Sinc_URRR,296.7, hit,2,0
735,6, T_Scon, T_Scon_DRRR,684.2, hit,2,0
736,6, T_Scon, T_Scon_DRRR,455.6, hit,2,0
737,6, T_Scon, T_Scon_DRRR,339.1, hit,2,0
738,6, T_Sinc, T_Sinc_DGLG,626.4, hit,1,0
739,6, T_Scon, T_Scon_UGLG,673.9, hit,1,0
740,6, T_Sinc, T_Sinc_URRR,561.3, hit,2,0
741,6, T_Scon, T_Scon_UGLG,376.8, incorrect,2,1
742,6, T_Scon, T_Scon_UGLG,532.2, hit,1,0
743,6, T_Scon, T_Scon_DRRR,511.7, hit,2,0
744,6, T_Scon, T_Scon_UGLG,747.1, hit,1,0
745,6, T_Scon, T_Scon_DRRR,758.6, hit,2,0
746,6, T_Sinc, T_Sinc_DGLG,530, hit,1,0
747,6, T_Sinc, T_Sinc_DGLG,689.4, hit,1,0
748,6, T_Sinc, T_Sinc_URRR,344.9, hit,2,0
749,6, T_Scon, T_Scon_DRRR,1100.3, hit,2,2
750,6, T_Scon, T_Scon_UGLG,511.7, hit,1,0
751,6, T_Sinc, T_Sinc_URRR,571.2, hit,2,0
752,6, T_Scon, T_Scon_UGLG,630.7, hit,1,0
753,6, T_Scon, T_Scon_DRRR,514, hit,2,0
754,6, T_Scon, T_Scon_DRRR,445.5, incorrect,1,1
755,6, T_Scon, T_Scon_DRRR,409, hit,2,0
756,6, T_Scon, T_Scon_UGLG,372.4, hit,1,0
757,6, T_Scon, T_Scon_DRRR,423.5, hit,2,0
758,6, T_Scon, T_Scon_DRRR,387, hit,2,0
759,6, T_Scon, T_Scon_UGLG,358.5, hit,1,0
760,6, T_Sinc, T_Sinc_URRR,337.9, hit,2,0
761,6, T_Scon, T_Scon_UGLG,413.3, hit,1,0
762,6, T_Scon, T_Scon_DRRR,316.7, hit,2,0
763,6, T_Scon, T_Scon_DRRR,444.2, hit,2,0
764,6, T_Sinc, T_Sinc_DGLG,319.7, incorrect,2,1
765,6, T_Sinc, T_Sinc_URRR,467.1, hit,2,0
766,6, T_Scon, T_Scon_DRRR,422.5, hit,2,0
767,6, T_Sinc, T_Sinc_URRR,390, incorrect,1,1
768,6, T_Scon, T_Scon_UGLG,457.4, hit,1,0
769,6, T_Scon, T_Scon_UGLG,392.9, hit,1,0
770,6, T_Scon, T_Scon_DRRR,544.2, hit,2,0
771,6, T_Scon, T_Scon_DRRR,619.7, hit,2,0
772,6, T_Scon, T_Scon_UGLG,503.2, hit,1,0
773,6, T_Scon, T_Scon_UGLG,586.6, hit,1,0
774,6, T_Sinc, T_Sinc_DGLG,354, hit,1,0
775,6, T_Scon, T_Scon_DRRR,529.5, hit,2,0
776,6, T_Scon, T_Scon_DRRR,404.9, hit,2,0
777,6, T_Sinc, T_Sinc_DGLG,568.4, hit,1,0
778,6, T_Scon, T_Scon_DRRR,523.9, hit,2,0
779,6, T_Sinc, T_Sinc_DGLG,567.2, hit,1,0
780,6, T_Scon, T_Scon_DRRR,434.7, hit,2,0
781,6, T_Scon, T_Scon_DRRR,494.2, hit,2,0
782,6, T_Scon, T_Scon_DRRR,529.5, hit,2,0
783,6, T_Sinc, T_Sinc_DGLG,621, hit,1,0
784,6, T_Scon, T_Scon_DRRR,492.5, hit,2,0
785,6, T_Scon, T_Scon_DRRR,479.9, hit,2,0
786,6, T_Scon, T_Scon_DRRR,467.3, hit,2,0
787,6, T_Scon, T_Scon_UGLG,434.7, hit,1,0
788,6, T_Scon, T_Scon_DRRR,550.2, hit,2,0
789,6, T_Sinc, T_Sinc_URRR,649.7, hit,2,0
790,6, T_Scon, T_Scon_DRRR,429, hit,2,0
791,6, T_Scon, T_Scon_DRRR,404.5, incorrect,1,1
792,6, T_Scon, T_Scon_UGLG,480, hit,1,0
793,6, T_Scon, T_Scon_DRRR,475.1, hit,2,0
794,6, T_Scon, T_Scon_UGLG,558.5, hit,1,0
795,6, T_Sinc, T_Sinc_DGLG,542, hit,1,0
796,6, T_Scon, T_Scon_DRRR,385.5, hit,2,0
797,6, T_Scon, T_Scon_DRRR,1068.8, hit,2,2
798,6, T_Scon, T_Scon_UGLG,464.3, hit,1,0
799,6, T_Scon, T_Scon_DRRR,599.8, hit,2,0
800,6, T_Sinc, T_Sinc_DGLG,479.2, hit,1,0
801,6, T_Scon, T_Scon_DRRR,426.6, hit,2,0
802,6, T_Scon, T_Scon_UGLG,902, hit,1,0
803,6, T_Sinc, T_Sinc_DGLG,593.5, hit,1,0
804,6, T_Scon, T_Scon_UGLG,0.1, miss,2147682,1
805,6, T_Scon, T_Scon_UGLG,804.4, hit,1,0
806,6, T_Scon, T_Scon_UGLG,327.8, hit,1,0
807,6, T_Sinc, T_Sinc_URRR,383.3, hit,2,0
808,6, T_Scon, T_Scon_UGLG,566.8, hit,1,0
809,6, T_Scon, T_Scon_DRRR,370.2, hit,2,0
810,6, T_Scon, T_Scon_DRRR,829.7, hit,2,0
811,6, T_Scon, T_Scon_DRRR,1137, hit,2,2
812,6, T_Scon, T_Scon_UGLG,608.4, hit,1,0
813,6, T_Sinc, T_Sinc_URRR,643.9, hit,2,0
814,6, T_Scon, T_Scon_DRRR,675.4, incorrect,1,1
815,6, T_Scon, T_Scon_DRRR,0.1, miss,2372500,1
816,6, T_Scon, T_Scon_UGLG,0.1, miss,2392665,1
817,6, T_Scon, T_Scon_UGLG,0.1, miss,2412830,1
818,6, T_Scon, T_Scon_DRRR,445.2, incorrect,1,1
819,6, T_Sinc, T_Sinc_DGLG,524.5, hit,1,0
820,6, T_Scon, T_Scon_DRRR,400, hit,2,0
821,6, T_Scon, T_Scon_DRRR,435.5, hit,2,0
822,6, T_Scon, T_Scon_DRRR,394.9, hit,2,0
823,6, T_Scon, T_Scon_UGLG,374.3, hit,1,0
824,6, T_Scon, T_Scon_UGLG,357.8, hit,1,0
825,6, T_Scon, T_Scon_DRRR,345.2, hit,2,0
826,6, T_Sinc, T_Sinc_URRR,524.6, hit,2,0
827,6, T_Sinc, T_Sinc_URRR,512.1, hit,2,0
828,6, T_Scon, T_Scon_UGLG,1063.5, hit,1,2
829,6, T_Scon, T_Scon_DRRR,582.7, hit,2,0
830,6, T_Sinc, T_Sinc_DGLG,322.2, hit,1,0
831,6, T_Scon, T_Scon_UGLG,433.5, hit,1,0
832,6, T_Sinc, T_Sinc_DGLG,509, hit,1,0
833,6, T_Sinc, T_Sinc_DGLG,800.5, hit,1,0
834,6, T_Scon, T_Scon_DRRR,491.9, hit,2,0
835,6, T_Scon, T_Scon_UGLG,0.1, miss,2980124,1
836,6, T_Sinc, T_Sinc_URRR,0.1, miss,3000289,1
837,6, T_Scon, T_Scon_UGLG,0.1, miss,3020454,1
838,6, T_Scon, T_Scon_UGLG,0.1, miss,3041619,1
839,6, T_Scon, T_Scon_UGLG,373.2, hit,1,0
840,6, T_Scon, T_Scon_UGLG,0.1, miss,3081950,1
841,6, T_Sinc, T_Sinc_URRR,568, hit,2,0
842,6, T_Sinc, T_Sinc_URRR,299.5, hit,2,0
843,6, T_Scon, T_Scon_DRRR,358.9, hit,2,0
844,6, T_Scon, T_Scon_DRRR,334.3, hit,2,0
845,6, T_Scon, T_Scon_UGLG,761.7, hit,1,0
846,6, T_Scon, T_Scon_UGLG,325.2, hit,1,0
847,6, T_Scon, T_Scon_UGLG,312.6, hit,1,0
848,6, T_Scon, T_Scon_UGLG,252, hit,1,0
849,6, T_Scon, T_Scon_DRRR,407.5, hit,2,0
850,6, T_Sinc, T_Sinc_DGLG,342.8, hit,1,0
851,6, T_Sinc, T_Sinc_DGLG,394.3, hit,1,0
852,6, T_Scon, T_Scon_UGLG,497.8, hit,1,0
853,6, T_Scon, T_Scon_UGLG,337.3, hit,1,0
854,6, T_Scon, T_Scon_UGLG,276.6, hit,1,0
855,6, T_Scon, T_Scon_UGLG,296.1, hit,1,0
856,6, T_Scon, T_Scon_UGLG,403.6, hit,1,0
857,6, T_Scon, T_Scon_DRRR,383, hit,2,0
858,6, T_Sinc, T_Sinc_DGLG,454.4, hit,1,0
859,6, T_Scon, T_Scon_DRRR,417.9, hit,2,0
860,6, T_Scon, T_Scon_UGLG,365.3, hit,1,0
861,6, T_Scon, T_Scon_UGLG,688.8, hit,1,0
862,6, T_Scon, T_Scon_UGLG,308.1, hit,1,0
863,6, T_Scon, T_Scon_UGLG,335.6, hit,1,0
864,6, T_Sinc, T_Sinc_URRR,523.1, hit,2,0
865,7, T_Sinc, T_Sinc_DGLG,438.5, hit,1,0
866,7, T_Sinc, T_Sinc_DGLG,274, hit,1,0
867,7, T_Scon, T_Scon_DRRR,281.5, hit,2,0
868,7, T_Sinc, T_Sinc_URRR,364.8, hit,2,0
869,7, T_Sinc, T_Sinc_URRR,352.3, hit,2,0
870,7, T_Sinc, T_Sinc_URRR,455.8, hit,2,0
871,7, T_Scon, T_Scon_UGLG,739.2, hit,1,0
872,7, T_Scon, T_Scon_UGLG,494.6, hit,1,0
873,7, T_Sinc, T_Sinc_DGLG,406.1, hit,1,0
874,7, T_Scon, T_Scon_DRRR,461.5, hit,2,0
875,7, T_Scon, T_Scon_DRRR,345, hit,2,0
876,7, T_Sinc, T_Sinc_DGLG,400.3, hit,1,0
877,7, T_Sinc, T_Sinc_URRR,323.8, hit,2,0
878,7, T_Sinc, T_Sinc_URRR,287.3, hit,2,0
879,7, T_Scon, T_Scon_UGLG,410.7, incorrect,2,1
880,7, T_Scon, T_Scon_DRRR,358.1, hit,2,0
881,7, T_Sinc, T_Sinc_DGLG,473.6, hit,1,0
882,7, T_Sinc, T_Sinc_DGLG,429, hit,1,0
883,7, T_Sinc, T_Sinc_URRR,364.5, hit,2,0
884,7, T_Sinc, T_Sinc_DGLG,303.9, hit,1,0
885,7, T_Sinc, T_Sinc_DGLG,491.3, hit,1,0
886,7, T_Sinc, T_Sinc_URRR,438.7, hit,2,0
887,7, T_Scon, T_Scon_UGLG,1014.2, hit,1,2
888,7, T_Scon, T_Scon_UGLG,553.6, hit,1,0
889,7, T_Sinc, T_Sinc_URRR,477.1, hit,2,0
890,7, T_Scon, T_Scon_DRRR,440.5, hit,2,0
891,7, T_Sinc, T_Sinc_URRR,460, hit,2,0
892,7, T_Sinc, T_Sinc_URRR,283.4, hit,2,0
893,7, T_Sinc, T_Sinc_DGLG,262.8, hit,1,0
894,7, T_Scon, T_Scon_DRRR,314.3, hit,2,0
895,7, T_Sinc, T_Sinc_URRR,325.8, incorrect,1,1
896,7, T_Sinc, T_Sinc_URRR,417.1, incorrect,1,1
897,7, T_Sinc, T_Sinc_DGLG,356.6, hit,1,0
898,7, T_Sinc, T_Sinc_URRR,448.1, hit,2,0
899,7, T_Sinc, T_Sinc_DGLG,451.4, hit,1,0
900,7, T_Scon, T_Scon_UGLG,342.9, hit,1,0
901,7, T_Sinc, T_Sinc_DGLG,418.1, hit,1,0
902,7, T_Scon, T_Scon_UGLG,229.6, incorrect,2,1
903,7, T_Sinc, T_Sinc_DGLG,312.9, hit,1,0
904,7, T_Sinc, T_Sinc_URRR,632.4, hit,2,0
905,7, T_Scon, T_Scon_DRRR,519.9, hit,2,0
906,7, T_Sinc, T_Sinc_DGLG,391.3, hit,1,0
907,7, T_Sinc, T_Sinc_DGLG,298.7, hit,1,0
908,7, T_Sinc, T_Sinc_URRR,306.1, hit,2,0
909,7, T_Scon, T_Scon_DRRR,321.6, incorrect,1,1
910,7, T_Sinc, T_Sinc_URRR,365.1, hit,2,0
911,7, T_Scon, T_Scon_DRRR,356.5, hit,2,0
912,7, T_Scon, T_Scon_DRRR,383.9, hit,2,0
913,7, T_Sinc, T_Sinc_DGLG,495.4, hit,1,0
914,7, T_Sinc, T_Sinc_DGLG,506.8, hit,1,0
915,7, T_Sinc, T_Sinc_URRR,378.3, hit,2,0
916,7, T_Sinc, T_Sinc_DGLG,525.7, hit,1,0
917,7, T_Sinc, T_Sinc_DGLG,449.1, hit,1,0
918,7, T_Sinc, T_Sinc_DGLG,716.6, hit,1,0
919,7, T_Sinc, T_Sinc_DGLG,348.1, hit,1,0
920,7, T_Sinc, T_Sinc_URRR,347.4, hit,2,0
921,7, T_Scon, T_Scon_UGLG,574.9, hit,1,0
922,7, T_Sinc, T_Sinc_DGLG,394.3, hit,1,0
923,7, T_Sinc, T_Sinc_DGLG,373.8, hit,1,0
924,7, T_Sinc, T_Sinc_DGLG,345.1, hit,1,0
925,7, T_Sinc, T_Sinc_URRR,288.6, hit,2,0
926,7, T_Sinc, T_Sinc_URRR,348.1, hit,2,0
927,7, T_Sinc, T_Sinc_DGLG,327.6, hit,1,0
928,7, T_Sinc, T_Sinc_DGLG,482.9, hit,1,0
929,7, T_Sinc, T_Sinc_URRR,386.4, hit,2,0
930,7, T_Sinc, T_Sinc_DGLG,397.9, hit,1,0
931,7, T_Sinc, T_Sinc_DGLG,345.3, incorrect,2,1
932,7, T_Sinc, T_Sinc_DGLG,308.7, hit,1,0
933,7, T_Sinc, T_Sinc_DGLG,280.2, hit,1,0
934,7, T_Sinc, T_Sinc_DGLG,363.6, hit,1,0
935,7, T_Sinc, T_Sinc_DGLG,339.1, hit,1,0
936,7, T_Sinc, T_Sinc_DGLG,310.4, hit,1,0
937,7, T_Scon, T_Scon_UGLG,417.6, hit,1,0
938,7, T_Sinc, T_Sinc_DGLG,341.1, hit,1,0
939,7, T_Sinc, T_Sinc_DGLG,396.6, hit,1,0
940,7, T_Sinc, T_Sinc_URRR,419.9, hit,2,0
941,7, T_Sinc, T_Sinc_URRR,403.4, hit,2,0
942,7, T_Sinc, T_Sinc_DGLG,434.9, hit,1,0
943,7, T_Scon, T_Scon_UGLG,346.3, hit,1,0
944,7, T_Sinc, T_Sinc_URRR,453.7, hit,2,0
945,7, T_Sinc, T_Sinc_URRR,317.2, hit,2,0
946,7, T_Scon, T_Scon_UGLG,784.6, hit,1,0
947,7, T_Sinc, T_Sinc_URRR,488.1, hit,2,0
948,7, T_Sinc, T_Sinc_URRR,419.5, hit,2,0
949,7, T_Sinc, T_Sinc_DGLG,422.9, hit,1,0
950,7, T_Scon, T_Scon_DRRR,478.4, hit,2,0
951,7, T_Sinc, T_Sinc_URRR,461.8, hit,2,0
952,7, T_Scon, T_Scon_DRRR,457.2, hit,2,0
953,7, T_Sinc, T_Sinc_URRR,316.7, hit,2,0
954,7, T_Sinc, T_Sinc_DGLG,404.1, hit,1,0
955,7, T_Sinc, T_Sinc_DGLG,327.6, hit,1,0
956,7, T_Sinc, T_Sinc_URRR,522.9, hit,2,0
957,7, T_Scon, T_Scon_DRRR,422.4, hit,2,0
958,7, T_Sinc, T_Sinc_DGLG,393.9, hit,1,0
959,7, T_Sinc, T_Sinc_URRR,389.4, hit,2,0
960,7, T_Sinc, T_Sinc_DGLG,584.7, hit,1,0
961,7, T_Scon, T_Scon_DRRR,436.1, hit,2,0
962,7, T_Sinc, T_Sinc_URRR,323.6, hit,2,0
963,7, T_Scon, T_Scon_UGLG,415.1, hit,1,0
964,7, T_Scon, T_Scon_UGLG,390.5, hit,1,0
965,7, T_Sinc, T_Sinc_URRR,333.9, hit,2,0
966,7, T_Scon, T_Scon_UGLG,553.4, hit,1,0
967,7, T_Sinc, T_Sinc_URRR,436.9, hit,2,0
968,7, T_Sinc, T_Sinc_URRR,556.3, hit,2,0
969,7, T_Sinc, T_Sinc_URRR,335.7, incorrect,1,1
970,7, T_Scon, T_Scon_DRRR,399.2, hit,2,0
971,7, T_Sinc, T_Sinc_DGLG,1194.6, incorrect,2,1
972,7, T_Sinc, T_Sinc_DGLG,494.1, hit,1,0
973,7, T_Sinc, T_Sinc_DGLG,489.2, hit,1,0
974,7, T_Sinc, T_Sinc_URRR,356.7, hit,2,0
975,7, T_Sinc, T_Sinc_URRR,476.1, hit,2,0
976,7, T_Sinc, T_Sinc_URRR,367.6, hit,2,0
977,7, T_Sinc, T_Sinc_URRR,363, hit,2,0
978,7, T_Sinc, T_Sinc_DGLG,386.4, hit,1,0
979,7, T_Sinc, T_Sinc_URRR,397.9, incorrect,1,1
980,7, T_Sinc, T_Sinc_DGLG,353.3, hit,1,0
981,7, T_Sinc, T_Sinc_URRR,388.7, hit,2,0
982,7, T_Sinc, T_Sinc_URRR,312.2, hit,2,0
983,7, T_Scon, T_Scon_DRRR,467.6, hit,2,0
984,7, T_Scon, T_Scon_UGLG,483.1, hit,1,0
985,7, T_Sinc, T_Sinc_DGLG,398.6, hit,1,0
986,7, T_Sinc, T_Sinc_URRR,361.9, hit,2,0
987,7, T_Scon, T_Scon_DRRR,773.4, hit,2,0
988,7, T_Scon, T_Scon_UGLG,300.9, hit,1,0
989,7, T_Sinc, T_Sinc_URRR,424.3, hit,2,0
990,7, T_Sinc, T_Sinc_DGLG,443.7, hit,1,0
991,7, T_Sinc, T_Sinc_URRR,367.2, hit,2,0
992,7, T_Sinc, T_Sinc_DGLG,442.6, hit,1,0
993,7, T_Sinc, T_Sinc_URRR,286.1, hit,2,0
994,7, T_Sinc, T_Sinc_DGLG,457.4, hit,1,0
995,7, T_Sinc, T_Sinc_DGLG,536.9, hit,1,0
996,7, T_Sinc, T_Sinc_URRR,380.4, hit,2,0
997,7, T_Sinc, T_Sinc_DGLG,503.8, hit,1,0
998,7, T_Sinc, T_Sinc_URRR,491.2, hit,2,0
999,7, T_Sinc, T_Sinc_DGLG,422.7, hit,1,0
1000,7, T_Scon, T_Scon_UGLG,426.1, incorrect,2,1
1001,7, T_Scon, T_Scon_DRRR,377.6, hit,2,0
1002,7, T_Scon, T_Scon_UGLG,373.1, hit,1,0
1003,7, T_Sinc, T_Sinc_URRR,344.4, hit,2,0
1004,7, T_Sinc, T_Sinc_URRR,731.9, hit,2,0
1005,7, T_Sinc, T_Sinc_URRR,539.3, hit,2,0
1006,7, T_Sinc, T_Sinc_DGLG,422.8, hit,1,0
1007,7, T_Sinc, T_Sinc_URRR,458.2, hit,2,0
1008,7, T_Sinc, T_Sinc_URRR,393.6, hit,2,0
1009,8, T_Sinc, T_Sinc_URRR,486, hit,2,0
1010,8, T_Sinc, T_Sinc_URRR,405.4, hit,2,0
1011,8, T_Sinc, T_Sinc_URRR,316.8, hit,2,0
1012,8, T_Scon, T_Scon_UGLG,420.3, hit,1,0
1013,8, T_Scon, T_Scon_DRRR,343.8, hit,2,0
1014,8, T_Sinc, T_Sinc_DGLG,315.2, incorrect,2,1
1015,8, T_Sinc, T_Sinc_DGLG,414.5, hit,1,0
1016,8, T_Sinc, T_Sinc_DGLG,362, hit,1,0
1017,8, T_Sinc, T_Sinc_DGLG,277.5, hit,1,0
1018,8, T_Sinc, T_Sinc_DGLG,361, hit,1,0
1019,8, T_Sinc, T_Sinc_DGLG,340.3, hit,1,0
1020,8, T_Sinc, T_Sinc_URRR,395.8, hit,2,0
1021,8, T_Sinc, T_Sinc_DGLG,279.3, hit,1,0
1022,8, T_Sinc, T_Sinc_URRR,418.7, hit,2,0
1023,8, T_Sinc, T_Sinc_DGLG,634.2, hit,1,0
1024,8, T_Sinc, T_Sinc_DGLG,369.6, hit,1,0
1025,8, T_Scon, T_Scon_DRRR,673, hit,2,0
1026,8, T_Scon, T_Scon_UGLG,408.5, hit,1,0
1027,8, T_Sinc, T_Sinc_DGLG,735.9, hit,1,0
1028,8, T_Scon, T_Scon_UGLG,423.3, hit,1,0
1029,8, T_Scon, T_Scon_DRRR,362.8, hit,2,0
1030,8, T_Sinc, T_Sinc_URRR,398.2, hit,2,0
1031,8, T_Sinc, T_Sinc_URRR,417.6, hit,2,0
1032,8, T_Scon, T_Scon_UGLG,697.1, hit,1,0
1033,8, T_Sinc, T_Sinc_DGLG,436.5, hit,1,0
1034,8, T_Scon, T_Scon_UGLG,540, hit,1,0
1035,8, T_Sinc, T_Sinc_DGLG,363.5, hit,1,0
1036,8, T_Sinc, T_Sinc_DGLG,418.8, hit,1,0
1037,8, T_Sinc, T_Sinc_DGLG,286.3, hit,1,0
1038,8, T_Scon, T_Scon_DRRR,449.8, hit,2,0
1039,8, T_Scon, T_Scon_UGLG,373.1, hit,1,0
1040,8, T_Sinc, T_Sinc_DGLG,528.6, hit,1,0
1041,8, T_Scon, T_Scon_DRRR,708, hit,2,0
1042,8, T_Sinc, T_Sinc_URRR,383.5, incorrect,1,1
1043,8, T_Sinc, T_Sinc_URRR,426.9, hit,2,0
1044,8, T_Sinc, T_Sinc_DGLG,422.3, hit,1,0
1045,8, T_Sinc, T_Sinc_URRR,389.5, incorrect,1,1
1046,8, T_Sinc, T_Sinc_URRR,448.9, hit,2,0
1047,8, T_Scon, T_Scon_UGLG,471.8, hit,1,0
1048,8, T_Sinc, T_Sinc_DGLG,355.3, hit,1,0
1049,8, T_Sinc, T_Sinc_URRR,446.8, hit,2,0
1050,8, T_Sinc, T_Sinc_URRR,418.1, hit,2,0
1051,8, T_Scon, T_Scon_UGLG,525.6, hit,1,0
1052,8, T_Sinc, T_Sinc_URRR,545.1, hit,2,0
1053,8, T_Sinc, T_Sinc_URRR,412.5, hit,2,0
1054,8, T_Sinc, T_Sinc_URRR,439.9, hit,2,0
1055,8, T_Sinc, T_Sinc_URRR,427.4, hit,2,0
1056,8, T_Sinc, T_Sinc_URRR,358.8, hit,2,0
1057,8, T_Sinc, T_Sinc_DGLG,546.3, hit,1,0
1058,8, T_Sinc, T_Sinc_URRR,389.6, hit,2,0
1059,8, T_Sinc, T_Sinc_URRR,441.1, hit,2,0
1060,8, T_Sinc, T_Sinc_URRR,404.6, hit,2,0
1061,8, T_Sinc, T_Sinc_DGLG,392, hit,1,0
1062,8, T_Sinc, T_Sinc_DGLG,495.5, hit,1,0
1063,8, T_Scon, T_Scon_UGLG,402.9, hit,1,0
1064,8, T_Sinc, T_Sinc_DGLG,434.3, hit,1,0
1065,8, T_Sinc, T_Sinc_DGLG,401.8, hit,1,0
1066,8, T_Sinc, T_Sinc_URRR,437.3, hit,2,0
1067,8, T_Sinc, T_Sinc_DGLG,712.6, hit,1,0
1068,8, T_Sinc, T_Sinc_DGLG,412.1, hit,1,0
1069,8, T_Sinc, T_Sinc_URRR,395.6, hit,2,0
1070,8, T_Sinc, T_Sinc_DGLG,551, hit,1,0
1071,8, T_Sinc, T_Sinc_DGLG,490.4, hit,1,0
1072,8, T_Sinc, T_Sinc_DGLG,465.8, hit,1,0
1073,8, T_Sinc, T_Sinc_DGLG,393.3, hit,1,0
1074,8, T_Sinc, T_Sinc_URRR,404.8, hit,2,0
1075,8, T_Scon, T_Scon_DRRR,476.1, hit,2,0
1076,8, T_Scon, T_Scon_DRRR,431.6, hit,2,0
1077,8, T_Sinc, T_Sinc_DGLG,443.1, hit,1,0
1078,8, T_Sinc, T_Sinc_URRR,418.5, hit,2,0
1079,8, T_Sinc, T_Sinc_DGLG,509.9, hit,1,0
1080,8, T_Sinc, T_Sinc_DGLG,0.1, miss,1930531,1
1081,8, T_Sinc, T_Sinc_DGLG,0.1, miss,1950696,1
1082,8, T_Sinc, T_Sinc_URRR,404, hit,2,0
1083,8, T_Sinc, T_Sinc_URRR,435.5, hit,2,0
1084,8, T_Sinc, T_Sinc_URRR,310.8, hit,2,0
1085,8, T_Sinc, T_Sinc_URRR,362.3, hit,2,0
1086,8, T_Scon, T_Scon_UGLG,389.8, hit,1,0
1087,8, T_Sinc, T_Sinc_URRR,353.1, hit,2,0
1088,8, T_Scon, T_Scon_DRRR,392.6, hit,2,0
1089,8, T_Scon, T_Scon_DRRR,584.1, hit,2,0
1090,8, T_Sinc, T_Sinc_URRR,331.5, hit,2,0
1091,8, T_Sinc, T_Sinc_URRR,474.9, hit,2,0
1092,8, T_Sinc, T_Sinc_DGLG,366.4, hit,1,0
1093,8, T_Sinc, T_Sinc_URRR,313.8, hit,2,0
1094,8, T_Sinc, T_Sinc_DGLG,437.3, hit,1,0
1095,8, T_Sinc, T_Sinc_URRR,340.8, hit,2,0
1096,8, T_Sinc, T_Sinc_URRR,304.1, incorrect,1,1
1097,8, T_Sinc, T_Sinc_DGLG,807.6, hit,1,0
1098,8, T_Sinc, T_Sinc_DGLG,483, hit,1,0
1099,8, T_Scon, T_Scon_UGLG,402.5, hit,1,0
1100,8, T_Sinc, T_Sinc_DGLG,429.9, hit,1,0
1101,8, T_Sinc, T_Sinc_URRR,433.3, hit,2,0
1102,8, T_Sinc, T_Sinc_DGLG,356.8, hit,1,0
1103,8, T_Scon, T_Scon_UGLG,408.2, hit,1,0
1104,8, T_Sinc, T_Sinc_DGLG,419.7, hit,1,0
1105,8, T_Sinc, T_Sinc_DGLG,379.1, hit,1,0
1106,8, T_Sinc, T_Sinc_URRR,402.6, hit,2,0
1107,8, T_Scon, T_Scon_UGLG,398, hit,1,0
1108,8, T_Scon, T_Scon_DRRR,461.5, hit,2,0
1109,8, T_Sinc, T_Sinc_URRR,416.8, hit,2,0
1110,8, T_Sinc, T_Sinc_URRR,420.3, hit,2,0
1111,8, T_Sinc, T_Sinc_DGLG,503.8, hit,1,0
1112,8, T_Sinc, T_Sinc_DGLG,407.2, hit,1,0
1113,8, T_Sinc, T_Sinc_URRR,494.6, hit,2,0
1114,8, T_Sinc, T_Sinc_URRR,526.1, hit,2,0
1115,8, T_Sinc, T_Sinc_URRR,477.5, hit,2,0
1116,8, T_Sinc, T_Sinc_URRR,524.6, hit,2,0
1117,8, T_Scon, T_Scon_UGLG,304.1, hit,1,0
1118,8, T_Sinc, T_Sinc_URRR,359.5, hit,2,0
1119,8, T_Scon, T_Scon_UGLG,371, hit,1,0
1120,8, T_Scon, T_Scon_UGLG,278.4, incorrect,2,1
1121,8, T_Scon, T_Scon_UGLG,321.8, hit,1,0
1122,8, T_Scon, T_Scon_DRRR,261.3, hit,2,0
1123,8, T_Scon, T_Scon_DRRR,336.8, incorrect,1,1
1124,8, T_Scon, T_Scon_UGLG,388.1, hit,1,0
1125,8, T_Sinc, T_Sinc_URRR,439.6, hit,2,0
1126,8, T_Sinc, T_Sinc_DGLG,419.1, hit,1,0
1127,8, T_Sinc, T_Sinc_URRR,438.5, hit,2,0
1128,8, T_Sinc, T_Sinc_URRR,370, hit,2,0
1129,8, T_Sinc, T_Sinc_DGLG,409.3, hit,1,0
1130,8, T_Scon, T_Scon_DRRR,556.8, hit,2,0
1131,8, T_Sinc, T_Sinc_DGLG,428.3, hit,1,0
1132,8, T_Sinc, T_Sinc_DGLG,495.8, hit,1,0
1133,8, T_Sinc, T_Sinc_URRR,551.1, hit,2,0
1134,8, T_Sinc, T_Sinc_URRR,490.6, hit,2,0
1135,8, T_Sinc, T_Sinc_DGLG,734.1, hit,1,0
1136,8, T_Scon, T_Scon_DRRR,465.5, hit,2,0
1137,8, T_Sinc, T_Sinc_DGLG,464.8, hit,1,0
1138,8, T_Scon, T_Scon_DRRR,320.4, hit,2,0
1139,8, T_Sinc, T_Sinc_DGLG,451.8, hit,1,0
1140,8, T_Sinc, T_Sinc_URRR,431.3, hit,2,0
1141,8, T_Sinc, T_Sinc_URRR,630.6, hit,2,0
1142,8, T_Sinc, T_Sinc_DGLG,374.1, incorrect,2,1
1143,8, T_Sinc, T_Sinc_URRR,857.6, hit,2,0
1144,8, T_Sinc, T_Sinc_DGLG,517, hit,1,0
1145,8, T_Scon, T_Scon_DRRR,1472.4, hit,2,2
1146,8, T_Sinc, T_Sinc_DGLG,423.9, hit,1,0
1147,8, T_Sinc, T_Sinc_DGLG,395.3, hit,1,0
1148,8, T_Sinc, T_Sinc_URRR,518.7, hit,2,0
1149,8, T_Sinc, T_Sinc_DGLG,814.2, hit,1,0
1150,8, T_Scon, T_Scon_DRRR,561.6, hit,2,0
1151,8, T_Scon, T_Scon_DRRR,461.1, incorrect,1,1
1152,9, T_Sinc, T_Sinc_URRR,491.9, hit,2,0
1153,9, T_Sinc, T_Sinc_DGLG,363.3, hit,1,0
1154,9, T_Sinc, T_Sinc_URRR,382.8, hit,2,0
1155,9, T_Scon, T_Scon_DRRR,418.2, hit,2,0
1156,9, T_Sinc, T_Sinc_DGLG,293.6, incorrect,2,1
1157,9, T_Sinc, T_Sinc_URRR,349.1, hit,2,0
1158,9, T_Scon, T_Scon_UGLG,496.6, hit,1,0
1159,9, T_Sinc, T_Sinc_URRR,419.9, hit,2,0
1160,9, T_Scon, T_Scon_UGLG,351.4, hit,1,0
1161,9, T_Sinc, T_Sinc_URRR,410.9, hit,2,0
1162,9, T_Sinc, T_Sinc_DGLG,362.2, hit,1,0
1163,9, T_Sinc, T_Sinc_URRR,577.7, hit,2,0
1164,9, T_Sinc, T_Sinc_URRR,401.2, hit,2,0
1165,9, T_Sinc, T_Sinc_DGLG,888.6, hit,1,0
1166,9, T_Sinc, T_Sinc_DGLG,396, hit,1,0
1167,9, T_Scon, T_Scon_UGLG,335.4, hit,1,0
1168,9, T_Sinc, T_Sinc_DGLG,330.9, hit,1,0
1169,9, T_Scon, T_Scon_DRRR,454.4, hit,2,0
1170,9, T_Scon, T_Scon_DRRR,493.7, hit,2,0
1171,9, T_Sinc, T_Sinc_URRR,837.2, hit,2,0
1172,9, T_Sinc, T_Sinc_URRR,416.7, hit,2,0
1173,9, T_Sinc, T_Sinc_DGLG,368.1, hit,1,0
1174,9, T_Sinc, T_Sinc_DGLG,347.5, hit,1,0
1175,9, T_Scon, T_Scon_DRRR,595, hit,2,0
1176,9, T_Scon, T_Scon_UGLG,398.4, hit,1,0
1177,9, T_Sinc, T_Sinc_URRR,385.9, hit,2,0
1178,9, T_Sinc, T_Sinc_URRR,421.4, hit,2,0
1179,9, T_Scon, T_Scon_UGLG,424.7, hit,1,0
1180,9, T_Sinc, T_Sinc_DGLG,420.2, hit,1,0
1181,9, T_Sinc, T_Sinc_DGLG,0.1, miss,652454,1
1182,9, T_Sinc, T_Sinc_DGLG,571.1, hit,1,0
1183,9, T_Sinc, T_Sinc_DGLG,298.5, hit,1,0
1184,9, T_Sinc, T_Sinc_DGLG,417.9, hit,1,0
1185,9, T_Sinc, T_Sinc_URRR,413.4, hit,2,0
1186,9, T_Sinc, T_Sinc_URRR,600.9, hit,2,0
1187,9, T_Scon, T_Scon_UGLG,484.2, hit,1,0
1188,9, T_Sinc, T_Sinc_URRR,503.4, hit,2,0
1189,9, T_Sinc, T_Sinc_DGLG,366.9, hit,1,0
1190,9, T_Sinc, T_Sinc_DGLG,514.4, hit,1,0
1191,9, T_Sinc, T_Sinc_DGLG,373.8, hit,1,0
1192,9, T_Sinc, T_Sinc_URRR,397.2, hit,2,0
1193,9, T_Sinc, T_Sinc_URRR,380.7, hit,2,0
1194,9, T_Sinc, T_Sinc_URRR,440.1, hit,2,0
1195,9, T_Sinc, T_Sinc_URRR,383.5, hit,2,0
1196,9, T_Scon, T_Scon_UGLG,406.9, hit,1,0
1197,9, T_Sinc, T_Sinc_URRR,402.4, hit,2,0
1198,9, T_Sinc, T_Sinc_DGLG,429.9, hit,1,0
1199,9, T_Sinc, T_Sinc_URRR,405.2, hit,2,0
1200,9, T_Scon, T_Scon_DRRR,384.7, hit,2,0
1201,9, T_Scon, T_Scon_DRRR,396.1, hit,2,0
1202,9, T_Sinc, T_Sinc_URRR,331.6, hit,2,0
1203,9, T_Sinc, T_Sinc_URRR,415.1, hit,2,0
1204,9, T_Sinc, T_Sinc_URRR,394.5, hit,2,0
1205,9, T_Sinc, T_Sinc_URRR,409.9, hit,2,0
1206,9, T_Sinc, T_Sinc_URRR,369.4, hit,2,0
1207,9, T_Sinc, T_Sinc_URRR,348.9, hit,2,0
1208,9, T_Scon, T_Scon_UGLG,432.2, hit,1,0
1209,9, T_Scon, T_Scon_UGLG,819.7, hit,1,0
1210,9, T_Sinc, T_Sinc_URRR,539.1, hit,2,0
1211,9, T_Sinc, T_Sinc_URRR,562.5, hit,2,0
1212,9, T_Scon, T_Scon_DRRR,578, hit,2,0
1213,9, T_Sinc, T_Sinc_URRR,453.4, hit,2,0
1214,9, T_Scon, T_Scon_DRRR,404.9, hit,2,0
1215,9, T_Scon, T_Scon_UGLG,448.3, hit,1,0
1216,9, T_Sinc, T_Sinc_DGLG,315.7, hit,1,0
1217,9, T_Sinc, T_Sinc_DGLG,375.2, hit,1,0
1218,9, T_Sinc, T_Sinc_URRR,426.6, hit,2,0
1219,9, T_Scon, T_Scon_DRRR,382.1, hit,2,0
1220,9, T_Sinc, T_Sinc_URRR,397.6, hit,2,0
1221,9, T_Sinc, T_Sinc_URRR,464.9, hit,2,0
1222,9, T_Sinc, T_Sinc_DGLG,452.4, hit,1,0
1223,9, T_Sinc, T_Sinc_URRR,443.8, hit,2,0
1224,9, T_Sinc, T_Sinc_URRR,431, hit,2,0
1225,9, T_Scon, T_Scon_UGLG,330.4, incorrect,2,1
1226,9, T_Sinc, T_Sinc_DGLG,445.9, hit,1,0
1227,9, T_Sinc, T_Sinc_DGLG,345.4, hit,1,0
1228,9, T_Scon, T_Scon_UGLG,308.8, hit,1,0
1229,9, T_Sinc, T_Sinc_URRR,520.2, hit,2,0
1230,9, T_Scon, T_Scon_UGLG,395.7, incorrect,2,1
1231,9, T_Sinc, T_Sinc_DGLG,607.1, hit,1,0
1232,9, T_Sinc, T_Sinc_DGLG,402.6, hit,1,0
1233,9, T_Sinc, T_Sinc_DGLG,358, hit,1,0
1234,9, T_Sinc, T_Sinc_DGLG,265.4, hit,1,0
1235,9, T_Sinc, T_Sinc_DGLG,272.9, hit,1,0
1236,9, T_Scon, T_Scon_DRRR,444.3, hit,2,0
1237,9, T_Sinc, T_Sinc_DGLG,411.7, hit,1,0
1238,9, T_Scon, T_Scon_UGLG,743.2, hit,1,0
1239,9, T_Scon, T_Scon_DRRR,362.7, hit,2,0
1240,9, T_Sinc, T_Sinc_URRR,422, hit,2,0
1241,9, T_Sinc, T_Sinc_DGLG,401.5, incorrect,2,1
1242,9, T_Sinc, T_Sinc_DGLG,1092.9, hit,1,2
1243,9, T_Scon, T_Scon_DRRR,348.4, hit,2,0
1244,9, T_Sinc, T_Sinc_URRR,0.1, miss,2332503,1
1245,9, T_Sinc, T_Sinc_DGLG,763.2, hit,1,0
1246,9, T_Sinc, T_Sinc_DGLG,446.7, hit,1,0
1247,9, T_Sinc, T_Sinc_URRR,366.2, hit,2,0
1248,9, T_Sinc, T_Sinc_URRR,377.5, hit,2,0
1249,9, T_Sinc, T_Sinc_DGLG,421, hit,1,0
1250,9, T_Scon, T_Scon_DRRR,392.5, hit,2,0
1251,9, T_Sinc, T_Sinc_URRR,383.8, incorrect,1,1
1252,9, T_Sinc, T_Sinc_DGLG,287.3, hit,1,0
1253,9, T_Sinc, T_Sinc_DGLG,450.8, hit,1,0
1254,9, T_Sinc, T_Sinc_URRR,214.2, incorrect,1,1
1255,9, T_Sinc, T_Sinc_URRR,373.6, hit,2,0
1256,9, T_Sinc, T_Sinc_DGLG,481, hit,1,0
1257,9, T_Sinc, T_Sinc_URRR,516.5, hit,2,0
1258,9, T_Scon, T_Scon_DRRR,828, hit,2,0
1259,9, T_Sinc, T_Sinc_URRR,415.3, hit,2,0
1260,9, T_Sinc, T_Sinc_URRR,898.5, hit,2,0
1261,9, T_Sinc, T_Sinc_DGLG,326, hit,1,0
1262,9, T_Sinc, T_Sinc_DGLG,341.5, hit,1,0
1263,9, T_Scon, T_Scon_UGLG,368.8, hit,1,0
1264,9, T_Sinc, T_Sinc_DGLG,348.3, hit,1,0
1265,9, T_Scon, T_Scon_DRRR,383.8, hit,2,0
1266,9, T_Sinc, T_Sinc_DGLG,383.1, hit,1,0
1267,9, T_Sinc, T_Sinc_URRR,450.6, hit,2,0
1268,9, T_Sinc, T_Sinc_DGLG,390.1, incorrect,2,1
1269,9, T_Sinc, T_Sinc_DGLG,609.5, hit,1,0
1270,9, T_Sinc, T_Sinc_DGLG,345, hit,1,0
1271,9, T_Scon, T_Scon_DRRR,424.4, hit,2,0
1272,9, T_Sinc, T_Sinc_DGLG,419.8, hit,1,0
1273,9, T_Sinc, T_Sinc_DGLG,607.3, hit,1,0
1274,9, T_Scon, T_Scon_DRRR,506.7, hit,2,0
1275,9, T_Sinc, T_Sinc_DGLG,410.2, hit,1,0
1276,9, T_Sinc, T_Sinc_URRR,437.5, hit,2,0
1277,9, T_Sinc, T_Sinc_URRR,409, hit,2,0
1278,9, T_Sinc, T_Sinc_DGLG,604.5, hit,1,0
1279,9, T_Sinc, T_Sinc_DGLG,927.9, hit,1,2
1280,9, T_Scon, T_Scon_UGLG,395.3, hit,1,0
1281,9, T_Sinc, T_Sinc_URRR,378.8, hit,2,0
1282,9, T_Sinc, T_Sinc_DGLG,430.2, hit,1,0
1283,9, T_Scon, T_Scon_UGLG,793.7, hit,1,0
1284,9, T_Sinc, T_Sinc_DGLG,317.1, hit,1,0
1285,9, T_Sinc, T_Sinc_URRR,324.5, incorrect,1,1
1286,9, T_Scon, T_Scon_DRRR,392, incorrect,1,1
1287,9, T_Sinc, T_Sinc_URRR,371.5, hit,2,0
1288,9, T_Sinc, T_Sinc_DGLG,406.9, hit,1,0
1289,9, T_Sinc, T_Sinc_DGLG,458.3, hit,1,0
1290,9, T_Sinc, T_Sinc_URRR,349.8, hit,2,0
1291,9, T_Sinc, T_Sinc_URRR,473.2, hit,2,0
1292,9, T_Scon, T_Scon_UGLG,312.6, hit,1,0
1293,9, T_Sinc, T_Sinc_DGLG,924, hit,1,2
1294,9, T_Sinc, T_Sinc_DGLG,299.5, hit,1,0
1295,9, T_Sinc, T_Sinc_URRR,447, hit,2,0
