trial_index, block, condition, full_condition_code, RT, response_type, response_key, error_outlier
1, 1, T_Sinc, T_Sinc_DRLR, 640.8, hit, 1, 0
2, 1, T_Scon, T_Scon_DGRG, 460.2, hit, 2, 0
3, 1, T_Scon, T_Scon_URLR, 411.7, hit, 1, 0
4, 1, T_Scon, T_Scon_URLR, 327.0, hit, 1, 0
5, 1, T_Sinc, T_Sinc_DRLR, 366.5, hit, 1, 0
6, 1, T_Scon, T_Scon_DGRG, 426.0, hit, 2, 0
7, 1, T_Scon, T_Scon_DGRG, 341.4, hit, 2, 0
8, 1, T_Scon, T_Scon_DGRG, 320.8, hit, 2, 0
9, 1, T_Scon, T_Scon_DGRG, 368.2, hit, 2, 0
10, 1, T_Scon, T_Scon_DGRG, 323.7, hit, 2, 0
11, 1, T_Scon, T_Scon_DGRG, 343.2, hit, 2, 0
12, 1, T_Scon, T_Scon_URLR, 466.5, hit, 1, 0
13, 1, T_Scon, T_Scon_DGRG, 406.0, hit, 2, 0
14, 1, T_Scon, T_Scon_DGRG, 461.5, hit, 2, 0
15, 1, T_Sinc, T_Sinc_UGRG, 545.0, hit, 2, 0
16, 1, T_Scon, T_Scon_URLR, 384.3, hit, 1, 0
17, 1, T_Scon, T_Scon_URLR, 383.8, hit, 1, 0
18, 1, T_Scon, T_Scon_DGRG, 319.2, hit, 2, 0
19, 1, T_Sinc, T_Sinc_DRLR, 498.6, hit, 1, 0
20, 1, T_Scon, T_Scon_URLR, 422.0, hit, 1, 0
21, 1, T_Scon, T_Scon_URLR, 445.5, hit, 1, 0
22, 1, T_Scon, T_Scon_DGRG, 365.0, hit, 2, 0
23, 1, T_Scon, T_Scon_URLR, 432.4, hit, 1, 0
24, 1, T_Scon, T_Scon_DGRG, 443.8, hit, 2, 0
25, 1, T_Scon, T_Scon_URLR, 303.3, hit, 1, 0
26, 1, T_Scon, T_Scon_DGRG, 378.6, hit, 2, 0
27, 1, T_Scon, T_Scon_DGRG, 406.1, hit, 2, 0
28, 1, T_Sinc, T_Sinc_UGRG, 365.6, incorrect, 1, 1
29, 1, T_Scon, T_Scon_DGRG, 452.9, hit, 2, 0
30, 1, T_Scon, T_Scon_DGRG, 380.4, hit, 2, 0
31, 1, T_Scon, T_Scon_DGRG, 391.9, hit, 2, 0
32, 1, T_Scon, T_Scon_URLR, 435.3, hit, 1, 0
33, 1, T_Scon, T_Scon_URLR, 338.7, hit, 1, 0
34, 1, T_Scon, T_Scon_URLR, 334.2, hit, 1, 0
35, 1, T_Scon, T_Scon_DGRG, 453.6, hit, 2, 0
36, 1, T_Sinc, T_Sinc_DRLR, 449.1, hit, 1, 0
37, 1, T_Scon, T_Scon_URLR, 520.2, hit, 1, 0
38, 1, T_Scon, T_Scon_DGRG, 423.7, hit, 2, 0
39, 1, T_Scon, T_Scon_DGRG, 395.1, hit, 2, 0
40, 1, T_Scon, T_Scon_URLR, 398.5, hit, 1, 0
41, 1, T_Sinc, T_Sinc_UGRG, 333.9, incorrect, 1, 1
42, 1, T_Scon, T_Scon_DGRG, 329.4, hit, 2, 0
43, 1, T_Scon, T_Scon_URLR, 404.9, hit, 1, 0
44, 1, T_Scon, T_Scon_URLR, 320.2, hit, 1, 0
45, 1, T_Sinc, T_Sinc_UGRG, 487.7, hit, 2, 0
46, 1, T_Scon, T_Scon_DGRG, 395.2, hit, 2, 0
47, 1, T_Scon, T_Scon_URLR, 362.6, hit, 1, 0
48, 1, T_Scon, T_Scon_DGRG, 342.0, hit, 2, 0
49, 1, T_Sinc, T_Sinc_UGRG, 605.5, hit, 2, 0
50, 1, T_Scon, T_Scon_URLR, 380.9, hit, 1, 0
51, 1, T_Scon, T_Scon_DGRG, 392.4, hit, 2, 0
52, 1, T_Scon, T_Scon_DGRG, 379.7, hit, 2, 0
53, 1, T_Sinc, T_Sinc_UGRG, 423.2, hit, 2, 0
54, 1, T_Sinc, T_Sinc_DRLR, 438.7, hit, 1, 0
55, 1, T_Scon, T_Scon_DGRG, 562.1, hit, 2, 0
56, 1, T_Sinc, T_Sinc_DRLR, 429.5, hit, 1, 0
57, 1, T_Scon, T_Scon_URLR, 433.0, hit, 1, 0
58, 1, T_Sinc, T_Sinc_UGRG, 412.4, hit, 2, 0
59, 1, T_Sinc, T_Sinc_UGRG, 547.9, hit, 2, 0
60, 1, T_Scon, T_Scon_URLR, 439.3, hit, 1, 0
61, 1, T_Sinc, T_Sinc_UGRG, 454.7, hit, 2, 0
62, 1, T_Scon, T_Scon_URLR, 490.2, hit, 1, 0
63, 1, T_Scon, T_Scon_DGRG, 485.6, hit, 2, 0
64, 1, T_Scon, T_Scon_DGRG, 369.1, hit, 2, 0
65, 1, T_Scon, T_Scon_DGRG, 372.5, hit, 2, 0
66, 1, T_Scon, T_Scon_DGRG, 403.9, hit, 2, 0
67, 1, T_Sinc, T_Sinc_UGRG, 451.4, hit, 2, 0
68, 1, T_Sinc, T_Sinc_UGRG, 350.9, hit, 2, 0
69, 1, T_Scon, T_Scon_URLR, 382.2, hit, 1, 0
70, 1, T_Scon, T_Scon_DGRG, 449.7, hit, 2, 0
71, 1, T_Scon, T_Scon_DGRG, 357.1, hit, 2, 0
72, 1, T_Scon, T_Scon_URLR, 424.6, hit, 1, 0
73, 1, T_Scon, T_Scon_URLR, 443.8, hit, 1, 0
74, 1, T_Sinc, T_Sinc_DRLR, 311.2, hit, 1, 0
75, 1, T_Scon, T_Scon_URLR, 334.7, hit, 1, 0
76, 1, T_Sinc, T_Sinc_UGRG, 382.0, hit, 2, 0
77, 1, T_Sinc, T_Sinc_DRLR, 397.5, hit, 1, 0
78, 1, T_Sinc, T_Sinc_DRLR, 480.9, hit, 1, 0
79, 1, T_Sinc, T_Sinc_DRLR, 424.4, hit, 1, 0
80, 1, T_Scon, T_Scon_URLR, 643.8, hit, 1, 0
81, 1, T_Sinc, T_Sinc_DRLR, 327.2, hit, 1, 0
82, 1, T_Scon, T_Scon_URLR, 354.7, hit, 1, 0
83, 1, T_Scon, T_Scon_URLR, 366.2, hit, 1, 0
84, 1, T_Scon, T_Scon_DGRG, 409.5, hit, 2, 0
85, 1, T_Scon, T_Scon_URLR, 409.0, hit, 1, 0
86, 1, T_Sinc, T_Sinc_UGRG, 356.5, hit, 2, 0
87, 1, T_Scon, T_Scon_URLR, 399.9, hit, 1, 0
88, 1, T_Scon, T_Scon_URLR, 367.3, hit, 1, 0
89, 1, T_Scon, T_Scon_URLR, 382.8, hit, 1, 0
90, 1, T_Scon, T_Scon_DGRG, 530.2, hit, 2, 0
91, 1, T_Scon, T_Scon_URLR, 437.7, hit, 1, 0
92, 1, T_Scon, T_Scon_DGRG, 329.0, hit, 2, 0
93, 1, T_Sinc, T_Sinc_UGRG, 496.5, hit, 2, 0
94, 1, T_Scon, T_Scon_URLR, 364.0, hit, 1, 0
95, 1, T_Sinc, T_Sinc_DRLR, 519.4, hit, 1, 0
96, 1, T_Scon, T_Scon_URLR, 358.8, hit, 1, 0
97, 1, T_Scon, T_Scon_URLR, 410.3, hit, 1, 0
98, 1, T_Sinc, T_Sinc_DRLR, 305.7, hit, 1, 0
99, 1, T_Scon, T_Scon_DGRG, 401.2, hit, 2, 0
100, 1, T_Sinc, T_Sinc_DRLR, 296.6, hit, 1, 0
101, 1, T_Scon, T_Scon_URLR, 300.0, hit, 1, 0
102, 1, T_Sinc, T_Sinc_UGRG, 471.5, hit, 2, 0
103, 1, T_Scon, T_Scon_DGRG, 278.9, hit, 2, 0
104, 1, T_Sinc, T_Sinc_DRLR, 410.3, hit, 1, 0
105, 1, T_Scon, T_Scon_URLR, 389.8, hit, 1, 0
106, 1, T_Scon, T_Scon_URLR, 409.2, hit, 1, 0
107, 1, T_Scon, T_Scon_DGRG, 484.7, hit, 2, 0
108, 1, T_Scon, T_Scon_URLR, 552.1, hit, 1, 0
109, 1, T_Scon, T_Scon_DGRG, 527.3, hit, 2, 0
110, 1, T_Scon, T_Scon_DGRG, 374.7, hit, 2, 0
111, 1, T_Scon, T_Scon_URLR, 350.1, hit, 1, 0
112, 1, T_Scon, T_Scon_DGRG, 337.6, hit, 2, 0
113, 1, T_Scon, T_Scon_URLR, 389.0, hit, 1, 0
114, 1, T_Scon, T_Scon_DGRG, 400.4, hit, 2, 0
115, 1, T_Scon, T_Scon_DGRG, 435.9, hit, 2, 0
116, 1, T_Scon, T_Scon_URLR, 287.3, hit, 1, 0
117, 1, T_Sinc, T_Sinc_DRLR, 386.8, hit, 1, 0
118, 1, T_Scon, T_Scon_DGRG, 334.2, incorrect, 1, 1
119, 1, T_Scon, T_Scon_URLR, 377.6, hit, 1, 0
120, 1, T_Sinc, T_Sinc_DRLR, 373.1, hit, 1, 0
121, 1, T_Scon, T_Scon_DGRG, 316.5, hit, 2, 0
122, 1, T_Sinc, T_Sinc_DRLR, 471.9, hit, 1, 0
123, 1, T_Scon, T_Scon_DGRG, 419.4, hit, 2, 0
124, 1, T_Scon, T_Scon_DGRG, 382.8, hit, 2, 0
125, 1, T_Scon, T_Scon_URLR, 462.2, hit, 1, 0
126, 1, T_Scon, T_Scon_DGRG, 489.6, hit, 2, 0
127, 1, T_Scon, T_Scon_DGRG, 373.1, hit, 2, 0
128, 1, T_Scon, T_Scon_URLR, 480.5, hit, 1, 0
129, 1, T_Scon, T_Scon_DGRG, 420.0, hit, 2, 0
130, 1, T_Scon, T_Scon_URLR, 343.4, hit, 1, 0
131, 1, T_Scon, T_Scon_URLR, 326.9, hit, 1, 0
132, 1, T_Scon, T_Scon_URLR, 290.3, hit, 1, 0
133, 1, T_Scon, T_Scon_URLR, 405.7, hit, 1, 0
134, 1, T_Scon, T_Scon_DGRG, 489.2, hit, 2, 0
135, 1, T_Scon, T_Scon_DGRG, 340.7, hit, 2, 0
136, 1, T_Scon, T_Scon_DGRG, 300.0, hit, 2, 0
137, 1, T_Sinc, T_Sinc_UGRG, 495.5, hit, 2, 0
138, 1, T_Sinc, T_Sinc_UGRG, 302.9, hit, 2, 0
139, 1, T_Scon, T_Scon_URLR, 434.4, hit, 1, 0
140, 1, T_Scon, T_Scon_URLR, 253.8, hit, 1, 0
141, 1, T_Scon, T_Scon_DGRG, 305.2, incorrect, 1, 1
142, 1, T_Sinc, T_Sinc_UGRG, 732.7, hit, 2, 0
143, 1, T_Scon, T_Scon_URLR, 504.2, hit, 1, 0
144, 1, T_Scon, T_Scon_URLR, 335.5, hit, 1, 0
145, 2, T_Scon, T_Scon_URLR, 381.7, hit, 1, 0
146, 2, T_Scon, T_Scon_URLR, 313.1, hit, 1, 0
147, 2, T_Scon, T_Scon_URLR, 336.6, hit, 1, 0
148, 2, T_Scon, T_Scon_URLR, 356.0, hit, 1, 0
149, 2, T_Sinc, T_Sinc_DRLR, 387.5, hit, 1, 0
150, 2, T_Sinc, T_Sinc_UGRG, 486.9, hit, 2, 0
151, 2, T_Scon, T_Scon_URLR, 354.3, hit, 1, 0
152, 2, T_Scon, T_Scon_DGRG, 437.7, hit, 2, 0
153, 2, T_Sinc, T_Sinc_DRLR, 473.2, hit, 1, 0
154, 2, T_Scon, T_Scon_DGRG, 336.7, hit, 2, 0
155, 2, T_Sinc, T_Sinc_DRLR, 316.0, hit, 1, 0
156, 2, T_Scon, T_Scon_URLR, 351.5, hit, 1, 0
157, 2, T_Sinc, T_Sinc_DRLR, 146.9, hit, 1, 0
158, 2, T_Scon, T_Scon_URLR, 306.4, hit, 1, 0
159, 2, T_Scon, T_Scon_DGRG, 465.7, hit, 2, 0
160, 2, T_Sinc, T_Sinc_DRLR, 561.2, hit, 1, 0
161, 2, T_Scon, T_Scon_DGRG, 428.7, hit, 2, 0
162, 2, T_Scon, T_Scon_URLR, 372.1, hit, 1, 0
163, 2, T_Scon, T_Scon_DGRG, 399.5, hit, 2, 0
164, 2, T_Sinc, T_Sinc_DRLR, 335.0, hit, 1, 0
165, 2, T_Scon, T_Scon_DGRG, 458.4, hit, 2, 0
166, 2, T_Scon, T_Scon_URLR, 373.9, hit, 1, 0
167, 2, T_Scon, T_Scon_URLR, 361.3, hit, 1, 0
168, 2, T_Scon, T_Scon_DGRG, 412.7, hit, 2, 0
169, 2, T_Sinc, T_Sinc_DRLR, 460.2, hit, 1, 0
170, 2, T_Scon, T_Scon_DGRG, 455.6, hit, 2, 0
171, 2, T_Scon, T_Scon_DGRG, 343.0, hit, 2, 0
172, 2, T_Scon, T_Scon_DGRG, 338.5, hit, 2, 0
173, 2, T_Scon, T_Scon_URLR, 341.9, hit, 1, 0
174, 2, T_Sinc, T_Sinc_DRLR, 281.3, hit, 1, 0
175, 2, T_Scon, T_Scon_DGRG, 428.8, hit, 2, 0
176, 2, T_Scon, T_Scon_DGRG, 336.2, hit, 2, 0
177, 2, T_Sinc, T_Sinc_DRLR, 419.7, hit, 1, 0
178, 2, T_Scon, T_Scon_DGRG, 479.1, hit, 2, 0
179, 2, T_Scon, T_Scon_URLR, 314.6, hit, 1, 0
180, 2, T_Scon, T_Scon_DGRG, 526.0, hit, 2, 0
181, 2, T_Scon, T_Scon_URLR, 545.2, hit, 1, 0
182, 2, T_Scon, T_Scon_DGRG, 480.6, hit, 2, 0
183, 2, T_Scon, T_Scon_URLR, 316.0, hit, 1, 0
184, 2, T_Scon, T_Scon_DGRG, 351.4, hit, 2, 0
185, 2, T_Scon, T_Scon_DGRG, 394.9, hit, 2, 0
186, 2, T_Scon, T_Scon_DGRG, 334.3, hit, 2, 0
187, 2, T_Scon, T_Scon_URLR, 325.8, hit, 1, 0
188, 2, T_Scon, T_Scon_DGRG, 377.2, hit, 2, 0
189, 2, T_Scon, T_Scon_URLR, 320.6, hit, 1, 0
190, 2, T_Scon, T_Scon_URLR, 408.1, hit, 1, 0
191, 2, T_Scon, T_Scon_DGRG, 371.6, hit, 2, 0
192, 2, T_Sinc, T_Sinc_DRLR, 346.9, incorrect, 2, 1
193, 2, T_Scon, T_Scon_URLR, 322.4, hit, 1, 0
194, 2, T_Sinc, T_Sinc_DRLR, 333.8, hit, 1, 0
195, 2, T_Sinc, T_Sinc_DRLR, 397.3, hit, 1, 0
196, 2, T_Sinc, T_Sinc_UGRG, 448.7, hit, 2, 0
197, 2, T_Scon, T_Scon_DGRG, 324.1, hit, 2, 0
198, 2, T_Scon, T_Scon_DGRG, 355.6, hit, 2, 0
199, 2, T_Scon, T_Scon_URLR, 335.1, hit, 1, 0
200, 2, T_Scon, T_Scon_DGRG, 570.4, hit, 2, 0
201, 2, T_Scon, T_Scon_URLR, 285.9, hit, 1, 0
202, 2, T_Scon, T_Scon_URLR, 313.4, hit, 1, 0
203, 2, T_Sinc, T_Sinc_UGRG, 484.8, hit, 2, 0
204, 2, T_Sinc, T_Sinc_UGRG, 316.2, hit, 2, 0
205, 2, T_Scon, T_Scon_URLR, 375.7, hit, 1, 0
206, 2, T_Sinc, T_Sinc_DRLR, 419.1, hit, 1, 0
207, 2, T_Scon, T_Scon_DGRG, 430.5, hit, 2, 0
208, 2, T_Sinc, T_Sinc_UGRG, 362.0, hit, 2, 0
209, 2, T_Scon, T_Scon_URLR, 397.4, hit, 1, 0
210, 2, T_Scon, T_Scon_URLR, 328.9, hit, 1, 0
211, 2, T_Scon, T_Scon_DGRG, 476.3, hit, 2, 0
212, 2, T_Scon, T_Scon_URLR, 295.7, hit, 1, 0
213, 2, T_Scon, T_Scon_URLR, 383.2, hit, 1, 0
214, 2, T_Scon, T_Scon_URLR, 410.5, hit, 1, 0
215, 2, T_Scon, T_Scon_DGRG, 342.0, hit, 2, 0
216, 2, T_Scon, T_Scon_DGRG, 285.5, hit, 2, 0
217, 2, T_Sinc, T_Sinc_DRLR, 528.7, incorrect, 2, 1
218, 2, T_Scon, T_Scon_DGRG, 368.0, hit, 2, 0
219, 2, T_Scon, T_Scon_URLR, 375.5, hit, 1, 0
220, 2, T_Scon, T_Scon_DGRG, 459.0, hit, 2, 0
221, 2, T_Scon, T_Scon_DGRG, 430.3, hit, 2, 0
222, 2, T_Scon, T_Scon_URLR, 349.8, hit, 1, 0
223, 2, T_Scon, T_Scon_DGRG, 449.2, hit, 2, 0
224, 2, T_Sinc, T_Sinc_DRLR, 392.7, hit, 1, 0
225, 2, T_Scon, T_Scon_URLR, 376.1, hit, 1, 0
226, 2, T_Scon, T_Scon_URLR, 371.6, hit, 1, 0
227, 2, T_Scon, T_Scon_URLR, 347.0, hit, 1, 0
228, 2, T_Scon, T_Scon_DGRG, 478.5, hit, 2, 0
229, 2, T_Scon, T_Scon_URLR, 353.8, hit, 1, 0
230, 2, T_Scon, T_Scon_DGRG, 289.3, hit, 2, 0
231, 2, T_Scon, T_Scon_DGRG, 492.8, hit, 2, 0
232, 2, T_Sinc, T_Sinc_UGRG, 584.2, hit, 2, 0
233, 2, T_Scon, T_Scon_URLR, 363.6, hit, 1, 0
234, 2, T_Sinc, T_Sinc_UGRG, 663.1, hit, 2, 0
235, 2, T_Sinc, T_Sinc_UGRG, 322.5, hit, 2, 0
236, 2, T_Scon, T_Scon_URLR, 446.0, hit, 1, 0
237, 2, T_Sinc, T_Sinc_UGRG, 465.4, hit, 2, 0
238, 2, T_Scon, T_Scon_DGRG, 340.8, hit, 2, 0
239, 2, T_Scon, T_Scon_URLR, 404.3, hit, 1, 0
240, 2, T_Sinc, T_Sinc_UGRG, 487.8, hit, 2, 0
241, 2, T_Scon, T_Scon_DGRG, 403.1, hit, 2, 0
242, 2, T_Scon, T_Scon_URLR, 386.6, hit, 1, 0
243, 2, T_Scon, T_Scon_URLR, 278.0, hit, 1, 0
244, 2, T_Scon, T_Scon_URLR, 385.5, hit, 1, 0
245, 2, T_Scon, T_Scon_DGRG, 404.9, incorrect, 1, 1
246, 2, T_Sinc, T_Sinc_UGRG, 448.3, hit, 2, 0
247, 2, T_Scon, T_Scon_DGRG, 391.8, hit, 2, 0
248, 2, T_Scon, T_Scon_URLR, 411.2, hit, 1, 0
249, 2, T_Scon, T_Scon_URLR, 314.6, hit, 1, 0
250, 2, T_Scon, T_Scon_DGRG, 382.1, hit, 2, 0
251, 2, T_Scon, T_Scon_DGRG, 385.6, hit, 2, 0
252, 2, T_Scon, T_Scon_DGRG, 340.9, hit, 2, 0
253, 2, T_Scon, T_Scon_DGRG, 508.2, hit, 2, 0
254, 2, T_Scon, T_Scon_DGRG, 367.6, hit, 2, 0
255, 2, T_Sinc, T_Sinc_UGRG, 458.9, hit, 2, 0
256, 2, T_Scon, T_Scon_DGRG, 358.4, hit, 2, 0
257, 2, T_Scon, T_Scon_DGRG, 409.9, hit, 2, 0
258, 2, T_Scon, T_Scon_URLR, 273.3, hit, 1, 0
259, 2, T_Scon, T_Scon_DGRG, 392.7, hit, 2, 0
260, 2, T_Scon, T_Scon_URLR, 516.2, hit, 1, 0
261, 2, T_Scon, T_Scon_DGRG, 471.6, hit, 2, 0
262, 2, T_Scon, T_Scon_URLR, 379.1, hit, 1, 0
263, 2, T_Scon, T_Scon_URLR, 334.5, hit, 1, 0
264, 2, T_Sinc, T_Sinc_UGRG, 505.9, hit, 2, 0
265, 2, T_Scon, T_Scon_DGRG, 441.4, hit, 2, 0
266, 2, T_Scon, T_Scon_DGRG, 364.9, hit, 2, 0
267, 2, T_Scon, T_Scon_URLR, 320.2, hit, 1, 0
268, 2, T_Sinc, T_Sinc_UGRG, 423.7, incorrect, 1, 1
269, 2, T_Scon, T_Scon_URLR, 455.1, hit, 1, 0
270, 2, T_Scon, T_Scon_URLR, 382.6, hit, 1, 0
271, 2, T_Sinc, T_Sinc_UGRG, 498.0, hit, 2, 0
272, 2, T_Sinc, T_Sinc_UGRG, 353.4, hit, 2, 0
273, 2, T_Sinc, T_Sinc_DRLR, 436.9, hit, 1, 0
274, 2, T_Scon, T_Scon_URLR, 304.3, hit, 1, 0
275, 2, T_Sinc, T_Sinc_DRLR, 363.7, incorrect, 2, 1
276, 2, T_Scon, T_Scon_DGRG, 663.2, hit, 2, 0
277, 2, T_Scon, T_Scon_DGRG, 334.7, hit, 2, 0
278, 2, T_Scon, T_Scon_URLR, 286.1, hit, 1, 0
279, 2, T_Scon, T_Scon_URLR, 309.5, hit, 1, 0
280, 2, T_Sinc, T_Sinc_UGRG, 524.9, hit, 2, 0
281, 2, T_Sinc, T_Sinc_UGRG, 448.4, hit, 2, 0
282, 2, T_Scon, T_Scon_DGRG, 627.9, hit, 2, 0
283, 2, T_Sinc, T_Sinc_DRLR, 419.2, hit, 1, 0
284, 2, T_Scon, T_Scon_DGRG, 446.7, hit, 2, 0
285, 2, T_Scon, T_Scon_URLR, 414.2, hit, 1, 0
286, 2, T_Scon, T_Scon_URLR, 353.5, hit, 1, 0
287, 2, T_Scon, T_Scon_DGRG, 445.0, hit, 2, 0
288, 2, T_Scon, T_Scon_URLR, 460.5, hit, 1, 0
289, 3, T_Scon, T_Scon_URLR, 515.5, hit, 1, 0
290, 3, T_Scon, T_Scon_DGRG, 582.9, hit, 2, 0
291, 3, T_Scon, T_Scon_URLR, 386.3, hit, 1, 0
292, 3, T_Sinc, T_Sinc_DRLR, 645.8, hit, 1, 0
293, 3, T_Scon, T_Scon_URLR, 409.2, hit, 1, 0
294, 3, T_Sinc, T_Sinc_DRLR, 416.7, hit, 1, 0
295, 3, T_Sinc, T_Sinc_DRLR, 408.0, hit, 1, 0
296, 3, T_Sinc, T_Sinc_DRLR, 435.5, hit, 1, 0
297, 3, T_Scon, T_Scon_DGRG, 382.9, hit, 2, 0
298, 3, T_Scon, T_Scon_DGRG, 354.4, hit, 2, 0
299, 3, T_Scon, T_Scon_DGRG, 401.8, hit, 2, 0
300, 3, T_Sinc, T_Sinc_UGRG, 389.3, hit, 2, 0
301, 3, T_Scon, T_Scon_URLR, 424.7, hit, 1, 0
302, 3, T_Scon, T_Scon_URLR, 316.1, hit, 1, 0
303, 3, T_Scon, T_Scon_DGRG, 419.5, hit, 2, 0
304, 3, T_Scon, T_Scon_DGRG, 347.0, hit, 2, 0
305, 3, T_Scon, T_Scon_URLR, 338.5, hit, 1, 0
306, 3, T_Sinc, T_Sinc_DRLR, 317.8, hit, 1, 0
307, 3, T_Scon, T_Scon_URLR, 301.3, hit, 1, 0
308, 3, T_Scon, T_Scon_DGRG, 496.8, hit, 2, 0
309, 3, T_Scon, T_Scon_DGRG, 556.2, hit, 2, 0
310, 3, T_Sinc, T_Sinc_UGRG, 419.6, hit, 2, 0
311, 3, T_Scon, T_Scon_DGRG, 383.0, hit, 2, 0
312, 3, T_Scon, T_Scon_DGRG, 338.5, hit, 2, 0
313, 3, T_Sinc, T_Sinc_DRLR, 582.0, hit, 1, 0
314, 3, T_Sinc, T_Sinc_DRLR, 293.3, hit, 1, 0
315, 3, T_Scon, T_Scon_URLR, 312.8, hit, 1, 0
316, 3, T_Sinc, T_Sinc_DRLR, 348.3, hit, 1, 0
317, 3, T_Scon, T_Scon_DGRG, 419.7, hit, 2, 0
318, 3, T_Sinc, T_Sinc_UGRG, 423.1, hit, 2, 0
319, 3, T_Scon, T_Scon_URLR, 442.6, hit, 1, 0
320, 3, T_Scon, T_Scon_DGRG, 570.0, hit, 2, 0
321, 3, T_Scon, T_Scon_URLR, 285.5, hit, 1, 0
322, 3, T_Scon, T_Scon_URLR, 408.9, hit, 1, 0
323, 3, T_Sinc, T_Sinc_DRLR, 580.3, hit, 1, 0
324, 3, T_Scon, T_Scon_URLR, 359.8, hit, 1, 0
325, 3, T_Scon, T_Scon_DGRG, 570.9, hit, 2, 0
326, 3, T_Sinc, T_Sinc_UGRG, 462.4, hit, 2, 0
327, 3, T_Scon, T_Scon_DGRG, 369.8, hit, 2, 0
328, 3, T_Scon, T_Scon_DGRG, 385.2, hit, 2, 0
329, 3, T_Scon, T_Scon_URLR, 404.6, hit, 1, 0
330, 3, T_Scon, T_Scon_DGRG, 456.1, hit, 2, 0
331, 3, T_Sinc, T_Sinc_UGRG, 335.6, hit, 2, 0
332, 3, T_Scon, T_Scon_DGRG, 362.9, hit, 2, 0
333, 3, T_Scon, T_Scon_DGRG, 422.4, hit, 2, 0
334, 3, T_Sinc, T_Sinc_UGRG, 477.9, hit, 2, 0
335, 3, T_Scon, T_Scon_DGRG, 393.4, hit, 2, 0
336, 3, T_Scon, T_Scon_URLR, 396.7, hit, 1, 0
337, 3, T_Scon, T_Scon_DGRG, 504.2, hit, 2, 0
338, 3, T_Scon, T_Scon_URLR, 307.6, hit, 1, 0
339, 3, T_Sinc, T_Sinc_DRLR, 535.1, hit, 1, 0
340, 3, T_Scon, T_Scon_DGRG, 550.4, hit, 2, 0
341, 3, T_Scon, T_Scon_URLR, 481.9, incorrect, 2, 1
342, 3, T_Scon, T_Scon_URLR, 477.4, incorrect, 2, 1
343, 3, T_Scon, T_Scon_DGRG, 504.8, hit, 2, 0
344, 3, T_Sinc, T_Sinc_UGRG, 404.2, hit, 2, 0
345, 3, T_Scon, T_Scon_DGRG, 355.7, hit, 2, 0
346, 3, T_Scon, T_Scon_DGRG, 427.1, hit, 2, 0
347, 3, T_Sinc, T_Sinc_UGRG, 482.6, hit, 2, 0
348, 3, T_Scon, T_Scon_URLR, 410.0, hit, 1, 0
349, 3, T_Scon, T_Scon_DGRG, 477.4, hit, 2, 0
350, 3, T_Scon, T_Scon_URLR, 348.9, hit, 1, 0
351, 3, T_Scon, T_Scon_DGRG, 544.3, hit, 2, 0
352, 3, T_Scon, T_Scon_URLR, 519.7, hit, 1, 0
353, 3, T_Sinc, T_Sinc_UGRG, 619.2, hit, 2, 0
354, 3, T_Sinc, T_Sinc_UGRG, 474.6, hit, 2, 0
355, 3, T_Scon, T_Scon_URLR, 570.0, hit, 1, 0
356, 3, T_Scon, T_Scon_DGRG, 669.5, hit, 2, 0
357, 3, T_Scon, T_Scon_DGRG, 632.9, hit, 2, 0
358, 3, T_Scon, T_Scon_DGRG, 376.4, hit, 2, 0
359, 3, T_Scon, T_Scon_DGRG, 451.8, hit, 2, 0
360, 3, T_Scon, T_Scon_DGRG, 455.2, hit, 2, 0
361, 3, T_Scon, T_Scon_DGRG, 742.5, hit, 2, 2
362, 3, T_Sinc, T_Sinc_DRLR, 457.8, hit, 1, 0
363, 3, T_Scon, T_Scon_DGRG, 477.3, hit, 2, 0
364, 3, T_Scon, T_Scon_URLR, 400.7, hit, 1, 0
365, 3, T_Scon, T_Scon_DGRG, 376.1, hit, 2, 0
366, 3, T_Scon, T_Scon_DGRG, 395.5, hit, 2, 0
367, 3, T_Scon, T_Scon_URLR, 583.0, hit, 1, 0
368, 3, T_Scon, T_Scon_URLR, 314.5, hit, 1, 0
369, 3, T_Scon, T_Scon_URLR, 305.9, hit, 1, 0
370, 3, T_Sinc, T_Sinc_DRLR, 337.3, hit, 1, 0
371, 3, T_Sinc, T_Sinc_UGRG, 404.8, hit, 2, 0
372, 3, T_Scon, T_Scon_DGRG, 360.2, hit, 2, 0
373, 3, T_Sinc, T_Sinc_DRLR, 395.6, hit, 1, 0
374, 3, T_Sinc, T_Sinc_DRLR, 327.1, hit, 1, 0
375, 3, T_Sinc, T_Sinc_UGRG, 430.5, incorrect, 1, 1
376, 3, T_Sinc, T_Sinc_UGRG, 698.0, hit, 2, 0
377, 3, T_Scon, T_Scon_URLR, 449.4, hit, 1, 0
378, 3, T_Sinc, T_Sinc_DRLR, 608.8, hit, 1, 0
379, 3, T_Scon, T_Scon_DGRG, 516.3, hit, 2, 0
380, 3, T_Sinc, T_Sinc_UGRG, 815.8, hit, 2, 2
381, 3, T_Scon, T_Scon_DGRG, 499.1, hit, 2, 0
382, 3, T_Scon, T_Scon_DGRG, 470.6, hit, 2, 0
383, 3, T_Scon, T_Scon_URLR, 410.0, hit, 1, 0
384, 3, T_Scon, T_Scon_URLR, 389.5, hit, 1, 0
385, 3, T_Sinc, T_Sinc_DRLR, 560.9, hit, 1, 0
386, 3, T_Scon, T_Scon_DGRG, 716.3, hit, 2, 0
387, 3, T_Scon, T_Scon_URLR, 479.8, hit, 1, 0
388, 3, T_Sinc, T_Sinc_UGRG, 647.3, hit, 2, 0
389, 3, T_Sinc, T_Sinc_UGRG, 402.6, hit, 2, 0
390, 3, T_Scon, T_Scon_DGRG, 438.1, hit, 2, 0
391, 3, T_Scon, T_Scon_DGRG, 389.6, hit, 2, 0
392, 3, T_Sinc, T_Sinc_DRLR, 449.0, hit, 1, 0
393, 3, T_Scon, T_Scon_URLR, 572.4, hit, 1, 0
394, 3, T_Sinc, T_Sinc_UGRG, 931.8, hit, 2, 2
395, 3, T_Scon, T_Scon_URLR, 939.3, hit, 1, 2
396, 3, T_Scon, T_Scon_URLR, 494.8, hit, 1, 0
397, 3, T_Scon, T_Scon_DGRG, 625.9, hit, 2, 0
398, 3, T_Scon, T_Scon_URLR, 365.4, hit, 1, 0
399, 3, T_Scon, T_Scon_URLR, 328.8, hit, 1, 0
400, 3, T_Scon, T_Scon_DGRG, 436.2, hit, 2, 0
401, 3, T_Scon, T_Scon_URLR, 487.6, hit, 1, 0
402, 3, T_Sinc, T_Sinc_UGRG, 491.1, hit, 2, 0
403, 3, T_Scon, T_Scon_URLR, 278.6, hit, 1, 0
404, 3, T_Scon, T_Scon_URLR, 361.9, hit, 1, 0
405, 3, T_Scon, T_Scon_DGRG, 449.4, hit, 2, 0
406, 3, T_Scon, T_Scon_URLR, 572.9, hit, 1, 0
407, 3, T_Scon, T_Scon_URLR, 520.3, hit, 1, 0
408, 3, T_Scon, T_Scon_URLR, 471.7, hit, 1, 0
409, 3, T_Scon, T_Scon_URLR, 339.2, hit, 1, 0
410, 3, T_Scon, T_Scon_URLR, 366.6, hit, 1, 0
411, 3, T_Scon, T_Scon_URLR, 354.1, hit, 1, 0
412, 3, T_Scon, T_Scon_URLR, 325.4, hit, 1, 0
413, 3, T_Scon, T_Scon_URLR, 380.9, hit, 1, 0
414, 3, T_Scon, T_Scon_DGRG, 436.4, hit, 2, 0
415, 3, T_Scon, T_Scon_URLR, 319.8, hit, 1, 0
416, 3, T_Scon, T_Scon_DGRG, 463.2, hit, 2, 0
417, 3, T_Scon, T_Scon_URLR, 290.7, hit, 1, 0
418, 3, T_Scon, T_Scon_DGRG, 430.1, hit, 2, 0
419, 3, T_Scon, T_Scon_DGRG, 489.5, hit, 2, 0
420, 3, T_Scon, T_Scon_DGRG, 416.9, hit, 2, 0
421, 3, T_Scon, T_Scon_URLR, 444.4, hit, 1, 0
422, 3, T_Scon, T_Scon_URLR, 343.8, hit, 1, 0
423, 3, T_Sinc, T_Sinc_DRLR, 559.3, hit, 1, 0
424, 3, T_Scon, T_Scon_URLR, 326.7, hit, 1, 0
425, 3, T_Scon, T_Scon_URLR, 306.2, hit, 1, 0
426, 3, T_Scon, T_Scon_DGRG, 1281.5, hit, 2, 2
427, 3, T_Scon, T_Scon_DGRG, 477.0, hit, 2, 0
428, 3, T_Scon, T_Scon_DGRG, 468.5, hit, 2, 0
429, 3, T_Scon, T_Scon_URLR, 399.9, hit, 1, 0
430, 3, T_Scon, T_Scon_URLR, 315.3, hit, 1, 0
431, 3, T_Scon, T_Scon_URLR, 266.8, hit, 1, 0
432, 3, T_Scon, T_Scon_DGRG, 542.2, hit, 2, 0
433, 4, T_Sinc, T_Sinc_DRLR, 471.9, hit, 1, 0
434, 4, T_Sinc, T_Sinc_DRLR, 319.3, hit, 1, 0
435, 4, T_Sinc, T_Sinc_DRLR, 298.7, hit, 1, 0
436, 4, T_Sinc, T_Sinc_UGRG, 446.2, hit, 2, 0
437, 4, T_Sinc, T_Sinc_DRLR, 465.5, hit, 1, 0
438, 4, T_Sinc, T_Sinc_DRLR, 501.0, hit, 1, 0
439, 4, T_Sinc, T_Sinc_UGRG, 520.5, hit, 2, 0
440, 4, T_Sinc, T_Sinc_DRLR, 327.9, hit, 1, 0
441, 4, T_Scon, T_Scon_URLR, 451.3, hit, 1, 0
442, 4, T_Scon, T_Scon_DGRG, 518.8, hit, 2, 0
443, 4, T_Sinc, T_Sinc_DRLR, 362.2, hit, 1, 0
444, 4, T_Sinc, T_Sinc_UGRG, 373.6, incorrect, 1, 1
445, 4, T_Sinc, T_Sinc_DRLR, 513.1, hit, 1, 0
446, 4, T_Sinc, T_Sinc_DRLR, 420.5, hit, 1, 0
447, 4, T_Scon, T_Scon_DGRG, 580.0, hit, 2, 0
448, 4, T_Sinc, T_Sinc_DRLR, 407.4, hit, 1, 0
449, 4, T_Sinc, T_Sinc_UGRG, 546.8, hit, 2, 0
450, 4, T_Sinc, T_Sinc_UGRG, 370.3, hit, 2, 0
451, 4, T_Sinc, T_Sinc_UGRG, 333.7, hit, 2, 0
452, 4, T_Scon, T_Scon_DGRG, 553.1, hit, 2, 0
453, 4, T_Sinc, T_Sinc_UGRG, 500.6, hit, 2, 0
454, 4, T_Sinc, T_Sinc_DRLR, 328.0, hit, 1, 0
455, 4, T_Sinc, T_Sinc_UGRG, 963.5, hit, 2, 2
456, 4, T_Sinc, T_Sinc_DRLR, 454.9, hit, 1, 0
457, 4, T_Sinc, T_Sinc_DRLR, 318.3, hit, 1, 0
458, 4, T_Sinc, T_Sinc_UGRG, 393.8, hit, 2, 0
459, 4, T_Sinc, T_Sinc_UGRG, 349.3, hit, 2, 0
460, 4, T_Sinc, T_Sinc_UGRG, 328.6, hit, 2, 0
461, 4, T_Sinc, T_Sinc_DRLR, 412.1, hit, 1, 0
462, 4, T_Sinc, T_Sinc_DRLR, 335.6, hit, 1, 0
463, 4, T_Sinc, T_Sinc_UGRG, 634.9, hit, 2, 0
464, 4, T_Sinc, T_Sinc_UGRG, 350.4, hit, 2, 0
465, 4, T_Sinc, T_Sinc_DRLR, 393.8, hit, 1, 0
466, 4, T_Sinc, T_Sinc_DRLR, 357.3, incorrect, 2, 1
467, 4, T_Scon, T_Scon_URLR, 324.7, hit, 1, 0
468, 4, T_Sinc, T_Sinc_UGRG, 508.1, hit, 2, 0
469, 4, T_Sinc, T_Sinc_DRLR, 479.4, hit, 1, 0
470, 4, T_Sinc, T_Sinc_DRLR, 462.7, hit, 1, 0
471, 4, T_Sinc, T_Sinc_UGRG, 418.2, hit, 2, 0
472, 4, T_Sinc, T_Sinc_UGRG, 353.6, incorrect, 1, 1
473, 4, T_Sinc, T_Sinc_UGRG, 533.1, hit, 2, 0
474, 4, T_Sinc, T_Sinc_DRLR, 400.5, hit, 1, 0
475, 4, T_Sinc, T_Sinc_DRLR, 523.9, hit, 1, 0
476, 4, T_Sinc, T_Sinc_DRLR, 563.4, hit, 1, 0
477, 4, T_Sinc, T_Sinc_DRLR, 466.8, hit, 1, 0
478, 4, T_Sinc, T_Sinc_DRLR, 546.2, hit, 1, 0
479, 4, T_Sinc, T_Sinc_DRLR, 381.7, hit, 1, 0
480, 4, T_Sinc, T_Sinc_UGRG, 565.2, hit, 2, 0
481, 4, T_Scon, T_Scon_URLR, 432.5, hit, 1, 0
482, 4, T_Sinc, T_Sinc_UGRG, 740.0, hit, 2, 0
483, 4, T_Sinc, T_Sinc_DRLR, 479.4, hit, 1, 0
484, 4, T_Sinc, T_Sinc_UGRG, 682.9, hit, 2, 0
485, 4, T_Sinc, T_Sinc_UGRG, 454.3, hit, 2, 0
486, 4, T_Sinc, T_Sinc_DRLR, 385.7, hit, 1, 0
487, 4, T_Sinc, T_Sinc_UGRG, 401.2, hit, 2, 0
488, 4, T_Sinc, T_Sinc_DRLR, 392.7, hit, 1, 0
489, 4, T_Sinc, T_Sinc_UGRG, 488.0, hit, 2, 0
490, 4, T_Sinc, T_Sinc_UGRG, 491.5, hit, 2, 0
491, 4, T_Sinc, T_Sinc_UGRG, 379.0, hit, 2, 0
492, 4, T_Sinc, T_Sinc_DRLR, 346.5, hit, 1, 0
493, 4, T_Sinc, T_Sinc_UGRG, 681.8, hit, 2, 0
494, 4, T_Sinc, T_Sinc_UGRG, 385.3, hit, 2, 0
495, 4, T_Scon, T_Scon_URLR, 364.7, hit, 1, 0
496, 4, T_Sinc, T_Sinc_UGRG, 516.2, hit, 2, 0
497, 4, T_Scon, T_Scon_DGRG, 367.6, hit, 2, 0
498, 4, T_Sinc, T_Sinc_UGRG, 403.0, hit, 2, 0
499, 4, T_Sinc, T_Sinc_UGRG, 342.5, hit, 2, 0
500, 4, T_Sinc, T_Sinc_UGRG, 393.8, hit, 2, 0
501, 4, T_Sinc, T_Sinc_DRLR, 349.3, hit, 1, 0
502, 4, T_Scon, T_Scon_DGRG, 376.7, hit, 2, 0
503, 4, T_Scon, T_Scon_DGRG, 300.2, hit, 2, 0
504, 4, T_Scon, T_Scon_DGRG, 379.7, hit, 2, 0
505, 4, T_Scon, T_Scon_DGRG, 458.8, hit, 2, 0
506, 4, T_Sinc, T_Sinc_UGRG, 390.3, hit, 2, 0
507, 4, T_Sinc, T_Sinc_DRLR, 457.7, hit, 1, 0
508, 4, T_Sinc, T_Sinc_DRLR, 381.1, hit, 1, 0
509, 4, T_Sinc, T_Sinc_UGRG, 372.6, hit, 2, 0
510, 4, T_Sinc, T_Sinc_UGRG, 560.0, hit, 2, 0
511, 4, T_Scon, T_Scon_DGRG, 327.4, hit, 2, 0
512, 4, T_Sinc, T_Sinc_DRLR, 474.8, hit, 1, 0
513, 4, T_Sinc, T_Sinc_DRLR, 366.3, hit, 1, 0
514, 4, T_Sinc, T_Sinc_UGRG, 349.8, hit, 2, 0
515, 4, T_Sinc, T_Sinc_UGRG, 373.1, hit, 2, 0
516, 4, T_Sinc, T_Sinc_DRLR, 372.6, hit, 1, 0
517, 4, T_Scon, T_Scon_DGRG, 544.1, hit, 2, 0
518, 4, T_Scon, T_Scon_URLR, 399.5, hit, 1, 0
519, 4, T_Sinc, T_Sinc_DRLR, 402.9, hit, 1, 0
520, 4, T_Scon, T_Scon_URLR, 694.4, hit, 1, 0
521, 4, T_Sinc, T_Sinc_DRLR, 445.8, hit, 1, 0
522, 4, T_Scon, T_Scon_URLR, 373.3, hit, 1, 0
523, 4, T_Sinc, T_Sinc_UGRG, 552.6, hit, 2, 0
524, 4, T_Scon, T_Scon_URLR, 572.1, hit, 1, 0
525, 4, T_Sinc, T_Sinc_UGRG, 479.6, hit, 2, 0
526, 4, T_Sinc, T_Sinc_UGRG, 283.0, hit, 2, 0
527, 4, T_Sinc, T_Sinc_UGRG, 282.4, hit, 2, 0
528, 4, T_Sinc, T_Sinc_DRLR, 341.9, hit, 1, 0
529, 4, T_Scon, T_Scon_URLR, 385.3, hit, 1, 0
530, 4, T_Sinc, T_Sinc_DRLR, 376.7, hit, 1, 0
531, 4, T_Scon, T_Scon_URLR, 484.2, hit, 1, 0
532, 4, T_Sinc, T_Sinc_DRLR, 383.6, hit, 1, 0
533, 4, T_Sinc, T_Sinc_UGRG, 463.1, hit, 2, 0
534, 4, T_Sinc, T_Sinc_DRLR, 410.4, hit, 1, 0
535, 4, T_Sinc, T_Sinc_UGRG, 909.9, incorrect, 1, 1
536, 4, T_Sinc, T_Sinc_DRLR, 477.4, hit, 1, 0
537, 4, T_Scon, T_Scon_DGRG, 612.7, hit, 2, 0
538, 4, T_Sinc, T_Sinc_DRLR, 448.2, hit, 1, 0
539, 4, T_Sinc, T_Sinc_UGRG, 359.7, hit, 2, 0
540, 4, T_Scon, T_Scon_DGRG, 363.1, hit, 2, 0
541, 4, T_Scon, T_Scon_DGRG, 418.3, hit, 2, 0
542, 4, T_Sinc, T_Sinc_DRLR, 365.7, hit, 1, 0
543, 4, T_Sinc, T_Sinc_UGRG, 441.2, hit, 2, 0
544, 4, T_Sinc, T_Sinc_DRLR, 464.7, hit, 1, 0
545, 4, T_Scon, T_Scon_DGRG, 444.0, hit, 2, 0
546, 4, T_Scon, T_Scon_DGRG, 659.4, incorrect, 1, 1
547, 4, T_Scon, T_Scon_URLR, 654.9, hit, 1, 0
548, 4, T_Scon, T_Scon_URLR, 542.3, hit, 1, 0
549, 4, T_Scon, T_Scon_DGRG, 361.8, hit, 2, 0
550, 4, T_Sinc, T_Sinc_DRLR, 389.2, incorrect, 2, 1
551, 4, T_Sinc, T_Sinc_DRLR, 592.7, hit, 1, 0
552, 4, T_Scon, T_Scon_DGRG, 556.1, hit, 2, 0
553, 4, T_Sinc, T_Sinc_UGRG, 651.5, hit, 2, 0
554, 4, T_Sinc, T_Sinc_UGRG, 391.0, hit, 2, 0
555, 4, T_Sinc, T_Sinc_UGRG, 562.4, hit, 2, 0
556, 4, T_Sinc, T_Sinc_DRLR, 413.9, hit, 1, 0
557, 4, T_Sinc, T_Sinc_DRLR, 333.3, hit, 1, 0
558, 4, T_Scon, T_Scon_URLR, 364.7, hit, 1, 0
559, 4, T_Sinc, T_Sinc_UGRG, 788.2, hit, 2, 2
560, 4, T_Sinc, T_Sinc_DRLR, 343.7, hit, 1, 0
561, 4, T_Sinc, T_Sinc_DRLR, 371.0, hit, 1, 0
562, 4, T_Scon, T_Scon_URLR, 414.5, hit, 1, 0
563, 4, T_Scon, T_Scon_URLR, 362.0, hit, 1, 0
564, 4, T_Sinc, T_Sinc_DRLR, 413.4, hit, 1, 0
565, 4, T_Sinc, T_Sinc_UGRG, 476.8, hit, 2, 0
566, 4, T_Sinc, T_Sinc_UGRG, 704.2, hit, 2, 0
567, 4, T_Sinc, T_Sinc_UGRG, 363.7, hit, 2, 0
568, 4, T_Sinc, T_Sinc_UGRG, 295.2, hit, 2, 0
569, 4, T_Scon, T_Scon_DGRG, 362.5, hit, 2, 0
570, 4, T_Scon, T_Scon_URLR, 390.0, hit, 1, 0
571, 4, T_Sinc, T_Sinc_DRLR, 261.5, hit, 1, 0
572, 4, T_Sinc, T_Sinc_UGRG, 576.8, hit, 2, 0
573, 4, T_Scon, T_Scon_URLR, 380.3, hit, 1, 0
574, 4, T_Scon, T_Scon_URLR, 695.8, hit, 1, 0
575, 4, T_Sinc, T_Sinc_DRLR, 411.2, hit, 1, 0
576, 4, T_Sinc, T_Sinc_UGRG, 578.6, hit, 2, 0
577, 5, T_Sinc, T_Sinc_UGRG, 499.2, hit, 2, 0
578, 5, T_Sinc, T_Sinc_UGRG, 302.7, hit, 2, 0
579, 5, T_Sinc, T_Sinc_DRLR, 418.0, hit, 1, 0
580, 5, T_Scon, T_Scon_URLR, 269.5, hit, 1, 0
581, 5, T_Scon, T_Scon_URLR, 368.9, hit, 1, 0
582, 5, T_Sinc, T_Sinc_UGRG, 460.3, hit, 2, 0
583, 5, T_Scon, T_Scon_URLR, 451.8, hit, 1, 0
584, 5, T_Sinc, T_Sinc_DRLR, 351.2, hit, 1, 0
585, 5, T_Sinc, T_Sinc_DRLR, 362.7, hit, 1, 0
586, 5, T_Sinc, T_Sinc_DRLR, 374.2, hit, 1, 0
587, 5, T_Sinc, T_Sinc_DRLR, 573.5, hit, 1, 0
588, 5, T_Scon, T_Scon_DGRG, 569.0, hit, 2, 0
589, 5, T_Sinc, T_Sinc_UGRG, 396.5, incorrect, 1, 1
590, 5, T_Scon, T_Scon_DGRG, 359.8, hit, 2, 0
591, 5, T_Sinc, T_Sinc_UGRG, 371.3, hit, 2, 0
592, 5, T_Sinc, T_Sinc_UGRG, 330.8, hit, 2, 0
593, 5, T_Scon, T_Scon_URLR, 426.1, hit, 1, 0
594, 5, T_Sinc, T_Sinc_DRLR, 317.6, hit, 1, 0
595, 5, T_Scon, T_Scon_DGRG, 485.1, hit, 2, 0
596, 5, T_Sinc, T_Sinc_DRLR, 384.5, hit, 1, 0
597, 5, T_Sinc, T_Sinc_DRLR, 347.9, hit, 1, 0
598, 5, T_Scon, T_Scon_DGRG, 439.3, hit, 2, 0
599, 5, T_Sinc, T_Sinc_DRLR, 514.8, hit, 1, 0
600, 5, T_Scon, T_Scon_DGRG, 566.3, hit, 2, 0
601, 5, T_Sinc, T_Sinc_UGRG, 393.7, hit, 2, 0
602, 5, T_Sinc, T_Sinc_DRLR, 401.1, hit, 1, 0
603, 5, T_Sinc, T_Sinc_DRLR, 304.6, hit, 1, 0
604, 5, T_Sinc, T_Sinc_DRLR, 484.1, hit, 1, 0
605, 5, T_Sinc, T_Sinc_UGRG, 467.5, hit, 2, 0
606, 5, T_Sinc, T_Sinc_DRLR, 494.8, hit, 1, 0
607, 5, T_Sinc, T_Sinc_DRLR, 394.3, hit, 1, 0
608, 5, T_Sinc, T_Sinc_UGRG, 557.8, hit, 2, 0
609, 5, T_Sinc, T_Sinc_UGRG, 345.2, hit, 2, 0
610, 5, T_Scon, T_Scon_DGRG, 688.6, hit, 2, 0
611, 5, T_Sinc, T_Sinc_UGRG, 524.1, hit, 2, 0
612, 5, T_Sinc, T_Sinc_UGRG, 347.5, hit, 2, 0
613, 5, T_Sinc, T_Sinc_DRLR, 458.7, hit, 1, 0
614, 5, T_Sinc, T_Sinc_DRLR, 326.1, hit, 1, 0
615, 5, T_Sinc, T_Sinc_UGRG, 341.6, hit, 2, 0
616, 5, T_Sinc, T_Sinc_UGRG, 309.0, hit, 2, 0
617, 5, T_Sinc, T_Sinc_UGRG, 300.4, hit, 2, 0
618, 5, T_Scon, T_Scon_DGRG, 423.9, hit, 2, 0
619, 5, T_Sinc, T_Sinc_UGRG, 379.3, hit, 2, 0
620, 5, T_Sinc, T_Sinc_DRLR, 390.8, hit, 1, 0
621, 5, T_Sinc, T_Sinc_UGRG, 538.1, hit, 2, 0
622, 5, T_Scon, T_Scon_DGRG, 325.6, hit, 2, 0
623, 5, T_Sinc, T_Sinc_DRLR, 553.1, hit, 1, 0
624, 5, T_Sinc, T_Sinc_DRLR, 308.6, hit, 1, 0
625, 5, T_Sinc, T_Sinc_UGRG, 459.9, hit, 2, 0
626, 5, T_Scon, T_Scon_URLR, 399.4, hit, 1, 0
627, 5, T_Scon, T_Scon_URLR, 374.9, hit, 1, 0
628, 5, T_Sinc, T_Sinc_UGRG, 482.3, hit, 2, 0
629, 5, T_Sinc, T_Sinc_UGRG, 361.7, hit, 2, 0
630, 5, T_Sinc, T_Sinc_DRLR, 593.1, hit, 1, 0
631, 5, T_Sinc, T_Sinc_DRLR, 396.6, hit, 1, 0
632, 5, T_Sinc, T_Sinc_UGRG, 352.0, hit, 2, 0
633, 5, T_Scon, T_Scon_URLR, 635.4, hit, 1, 0
634, 5, T_Scon, T_Scon_DGRG, 422.9, hit, 2, 0
635, 5, T_Sinc, T_Sinc_DRLR, 338.3, hit, 1, 0
636, 5, T_Sinc, T_Sinc_UGRG, 441.7, hit, 2, 0
637, 5, T_Sinc, T_Sinc_UGRG, 357.2, hit, 2, 0
638, 5, T_Sinc, T_Sinc_UGRG, 296.6, hit, 2, 0
639, 5, T_Sinc, T_Sinc_DRLR, 452.1, hit, 1, 0
640, 5, T_Sinc, T_Sinc_DRLR, 335.5, hit, 1, 0
641, 5, T_Sinc, T_Sinc_UGRG, 538.9, hit, 2, 0
642, 5, T_Sinc, T_Sinc_UGRG, 470.4, hit, 2, 0
643, 5, T_Sinc, T_Sinc_UGRG, 397.9, hit, 2, 0
644, 5, T_Sinc, T_Sinc_DRLR, 421.3, hit, 1, 0
645, 5, T_Scon, T_Scon_URLR, 528.7, hit, 1, 0
646, 5, T_Sinc, T_Sinc_UGRG, 484.1, hit, 2, 0
647, 5, T_Sinc, T_Sinc_UGRG, 355.6, hit, 2, 0
648, 5, T_Sinc, T_Sinc_UGRG, 287.0, hit, 2, 0
649, 5, T_Scon, T_Scon_DGRG, 906.2, hit, 2, 2
650, 5, T_Sinc, T_Sinc_UGRG, 381.6, hit, 2, 0
651, 5, T_Sinc, T_Sinc_DRLR, 337.0, hit, 1, 0
652, 5, T_Sinc, T_Sinc_DRLR, 748.5, hit, 1, 0
653, 5, T_Sinc, T_Sinc_DRLR, 480.0, hit, 1, 0
654, 5, T_Sinc, T_Sinc_UGRG, 555.4, hit, 2, 0
655, 5, T_Scon, T_Scon_DGRG, 430.9, hit, 2, 0
656, 5, T_Sinc, T_Sinc_UGRG, 762.2, hit, 2, 0
657, 5, T_Sinc, T_Sinc_DRLR, 381.7, hit, 1, 0
658, 5, T_Sinc, T_Sinc_DRLR, 377.1, hit, 1, 0
659, 5, T_Sinc, T_Sinc_DRLR, 332.6, hit, 1, 0
660, 5, T_Sinc, T_Sinc_DRLR, 312.1, hit, 1, 0
661, 5, T_Scon, T_Scon_DGRG, 431.4, hit, 2, 0
662, 5, T_Scon, T_Scon_URLR, 586.9, hit, 1, 0
663, 5, T_Scon, T_Scon_URLR, 586.4, hit, 1, 0
664, 5, T_Sinc, T_Sinc_UGRG, 501.7, hit, 2, 0
665, 5, T_Sinc, T_Sinc_UGRG, 373.2, hit, 2, 0
666, 5, T_Scon, T_Scon_URLR, 420.7, hit, 1, 0
667, 5, T_Sinc, T_Sinc_DRLR, 308.1, hit, 1, 0
668, 5, T_Sinc, T_Sinc_UGRG, 375.5, hit, 2, 0
669, 5, T_Sinc, T_Sinc_DRLR, 555.0, hit, 1, 0
670, 5, T_Sinc, T_Sinc_UGRG, 562.4, hit, 2, 0
671, 5, T_Scon, T_Scon_DGRG, 441.8, hit, 2, 0
672, 5, T_Sinc, T_Sinc_UGRG, 469.3, hit, 2, 0
673, 5, T_Sinc, T_Sinc_DRLR, 332.7, hit, 1, 0
674, 5, T_Sinc, T_Sinc_UGRG, 412.2, hit, 2, 0
675, 5, T_Sinc, T_Sinc_DRLR, 471.5, hit, 1, 0
676, 5, T_Sinc, T_Sinc_UGRG, 307.0, hit, 2, 0
677, 5, T_Sinc, T_Sinc_DRLR, 430.5, hit, 1, 0
678, 5, T_Scon, T_Scon_DGRG, 445.9, hit, 2, 0
679, 5, T_Scon, T_Scon_DGRG, 353.3, hit, 2, 0
680, 5, T_Sinc, T_Sinc_DRLR, 492.8, hit, 1, 0
681, 5, T_Sinc, T_Sinc_DRLR, 392.2, hit, 1, 0
682, 5, T_Sinc, T_Sinc_DRLR, 383.6, hit, 1, 0
683, 5, T_Scon, T_Scon_URLR, 399.1, hit, 1, 0
684, 5, T_Sinc, T_Sinc_UGRG, 574.5, hit, 2, 0
685, 5, T_Sinc, T_Sinc_DRLR, 617.7, hit, 1, 0
686, 5, T_Scon, T_Scon_URLR, 377.1, hit, 1, 0
687, 5, T_Sinc, T_Sinc_UGRG, 420.5, hit, 2, 0
688, 5, T_Sinc, T_Sinc_UGRG, 320.0, hit, 2, 0
689, 5, T_Scon, T_Scon_URLR, 411.5, hit, 1, 0
690, 5, T_Sinc, T_Sinc_UGRG, 446.8, incorrect, 1, 1
691, 5, T_Sinc, T_Sinc_DRLR, 418.3, hit, 1, 0
692, 5, T_Sinc, T_Sinc_DRLR, 553.8, hit, 1, 0
693, 5, T_Sinc, T_Sinc_UGRG, 405.1, hit, 2, 0
694, 5, T_Sinc, T_Sinc_DRLR, 368.6, hit, 1, 0
695, 5, T_Sinc, T_Sinc_DRLR, 352.1, hit, 1, 0
696, 5, T_Sinc, T_Sinc_UGRG, 451.4, hit, 2, 0
697, 5, T_Sinc, T_Sinc_UGRG, 374.9, hit, 2, 0
698, 5, T_Sinc, T_Sinc_UGRG, 306.4, hit, 2, 0
699, 5, T_Sinc, T_Sinc_DRLR, 461.7, hit, 1, 0
700, 5, T_Sinc, T_Sinc_UGRG, 453.2, hit, 2, 0
701, 5, T_Scon, T_Scon_URLR, 456.7, hit, 1, 0
702, 5, T_Sinc, T_Sinc_UGRG, 432.1, hit, 2, 0
703, 5, T_Sinc, T_Sinc_UGRG, 411.5, hit, 2, 0
704, 5, T_Sinc, T_Sinc_DRLR, 395.0, hit, 1, 0
705, 5, T_Scon, T_Scon_DGRG, 482.4, hit, 2, 0
706, 5, T_Sinc, T_Sinc_DRLR, 405.9, hit, 1, 0
707, 5, T_Sinc, T_Sinc_DRLR, 369.3, hit, 1, 0
708, 5, T_Scon, T_Scon_DGRG, 500.7, hit, 2, 0
709, 5, T_Sinc, T_Sinc_DRLR, 504.2, hit, 1, 0
710, 5, T_Sinc, T_Sinc_UGRG, 515.5, hit, 2, 0
711, 5, T_Sinc, T_Sinc_DRLR, 695.0, hit, 1, 0
712, 5, T_Scon, T_Scon_DGRG, 522.5, hit, 2, 0
713, 5, T_Scon, T_Scon_URLR, 341.9, hit, 1, 0
714, 5, T_Sinc, T_Sinc_DRLR, 533.3, hit, 1, 0
715, 5, T_Sinc, T_Sinc_UGRG, 564.8, hit, 2, 0
716, 5, T_Sinc, T_Sinc_DRLR, 516.2, hit, 1, 0
717, 5, T_Sinc, T_Sinc_UGRG, 439.7, hit, 2, 0
718, 5, T_Sinc, T_Sinc_DRLR, 331.1, hit, 1, 0
719, 5, T_Scon, T_Scon_URLR, 342.5, hit, 1, 0
720, 5, T_Scon, T_Scon_URLR, 414.0, hit, 1, 0
721, 6, T_Sinc, T_Sinc_UGRG, 645.0, hit, 2, 0
722, 6, T_Scon, T_Scon_URLR, 380.4, hit, 1, 0
723, 6, T_Sinc, T_Sinc_DRLR, 295.8, hit, 1, 0
724, 6, T_Sinc, T_Sinc_DRLR, 439.2, hit, 1, 0
725, 6, T_Sinc, T_Sinc_UGRG, 298.7, hit, 2, 0
726, 6, T_Sinc, T_Sinc_UGRG, 342.2, hit, 2, 0
727, 6, T_Scon, T_Scon_URLR, 305.6, hit, 1, 0
728, 6, T_Sinc, T_Sinc_DRLR, 365.0, hit, 1, 0
729, 6, T_Scon, T_Scon_URLR, 312.5, hit, 1, 0
730, 6, T_Scon, T_Scon_DGRG, 428.0, hit, 2, 0
731, 6, T_Sinc, T_Sinc_UGRG, 455.4, hit, 2, 0
732, 6, T_Sinc, T_Sinc_UGRG, 358.8, hit, 2, 0
733, 6, T_Sinc, T_Sinc_UGRG, 322.2, hit, 2, 0
734, 6, T_Sinc, T_Sinc_UGRG, 329.7, hit, 2, 0
735, 6, T_Sinc, T_Sinc_UGRG, 289.1, hit, 2, 0
736, 6, T_Sinc, T_Sinc_UGRG, 384.5, hit, 2, 0
737, 6, T_Sinc, T_Sinc_DRLR, 444.0, hit, 1, 0
738, 6, T_Scon, T_Scon_DGRG, 471.4, hit, 2, 0
739, 6, T_Sinc, T_Sinc_DRLR, 334.8, hit, 1, 0
740, 6, T_Sinc, T_Sinc_UGRG, 394.3, hit, 2, 0
741, 6, T_Sinc, T_Sinc_DRLR, 709.7, hit, 1, 0
742, 6, T_Scon, T_Scon_URLR, 361.1, hit, 1, 0
743, 6, T_Sinc, T_Sinc_DRLR, 284.6, hit, 1, 0
744, 6, T_Sinc, T_Sinc_UGRG, 456.0, hit, 2, 0
745, 6, T_Sinc, T_Sinc_UGRG, 323.5, hit, 2, 0
746, 6, T_Sinc, T_Sinc_DRLR, 398.9, hit, 1, 0
747, 6, T_Scon, T_Scon_DGRG, 474.3, hit, 2, 0
748, 6, T_Sinc, T_Sinc_DRLR, 381.8, hit, 1, 0
749, 6, T_Scon, T_Scon_DGRG, 353.3, hit, 2, 0
750, 6, T_Scon, T_Scon_URLR, 356.7, hit, 1, 0
751, 6, T_Scon, T_Scon_URLR, 324.1, hit, 1, 0
752, 6, T_Scon, T_Scon_DGRG, 511.5, hit, 2, 0
753, 6, T_Sinc, T_Sinc_UGRG, 467.0, hit, 2, 0
754, 6, T_Sinc, T_Sinc_DRLR, 430.4, hit, 1, 0
755, 6, T_Sinc, T_Sinc_UGRG, 365.8, hit, 2, 0
756, 6, T_Scon, T_Scon_URLR, 285.3, hit, 1, 0
757, 6, T_Sinc, T_Sinc_DRLR, 516.4, hit, 1, 0
758, 6, T_Sinc, T_Sinc_UGRG, 495.9, hit, 2, 0
759, 6, T_Sinc, T_Sinc_DRLR, 495.3, hit, 1, 0
760, 6, T_Sinc, T_Sinc_UGRG, 306.7, hit, 2, 0
761, 6, T_Sinc, T_Sinc_DRLR, 362.2, hit, 1, 0
762, 6, T_Scon, T_Scon_DGRG, 325.6, hit, 2, 0
763, 6, T_Sinc, T_Sinc_DRLR, 385.1, hit, 1, 0
764, 6, T_Sinc, T_Sinc_UGRG, 344.5, hit, 2, 0
765, 6, T_Scon, T_Scon_DGRG, 499.9, hit, 2, 0
766, 6, T_Sinc, T_Sinc_DRLR, 327.4, hit, 1, 0
767, 6, T_Scon, T_Scon_URLR, 326.7, hit, 1, 0
768, 6, T_Sinc, T_Sinc_UGRG, 426.2, hit, 2, 0
769, 6, T_Sinc, T_Sinc_DRLR, 417.7, hit, 1, 0
770, 6, T_Scon, T_Scon_DGRG, 481.1, hit, 2, 0
771, 6, T_Scon, T_Scon_URLR, 504.5, hit, 1, 0
772, 6, T_Sinc, T_Sinc_UGRG, 368.0, hit, 2, 0
773, 6, T_Sinc, T_Sinc_DRLR, 563.4, hit, 1, 0
774, 6, T_Sinc, T_Sinc_DRLR, 422.9, hit, 1, 0
775, 6, T_Scon, T_Scon_DGRG, 506.3, hit, 2, 0
776, 6, T_Scon, T_Scon_URLR, 365.7, hit, 1, 0
777, 6, T_Sinc, T_Sinc_DRLR, 549.2, hit, 1, 0
778, 6, T_Sinc, T_Sinc_DRLR, 324.7, hit, 1, 0
779, 6, T_Scon, T_Scon_URLR, 316.0, hit, 1, 0
780, 6, T_Sinc, T_Sinc_UGRG, 399.5, hit, 2, 0
781, 6, T_Sinc, T_Sinc_DRLR, 430.9, hit, 1, 0
782, 6, T_Scon, T_Scon_DGRG, 530.3, hit, 2, 0
783, 6, T_Scon, T_Scon_URLR, 477.8, hit, 1, 0
784, 6, T_Sinc, T_Sinc_DRLR, 361.2, hit, 1, 0
785, 6, T_Scon, T_Scon_URLR, 324.7, hit, 1, 0
786, 6, T_Sinc, T_Sinc_UGRG, 472.2, hit, 2, 0
787, 6, T_Scon, T_Scon_DGRG, 391.5, hit, 2, 0
788, 6, T_Sinc, T_Sinc_UGRG, 323.0, hit, 2, 0
789, 6, T_Sinc, T_Sinc_DRLR, 390.5, hit, 1, 0
790, 6, T_Sinc, T_Sinc_UGRG, 297.8, hit, 2, 0
791, 6, T_Sinc, T_Sinc_DRLR, 365.3, hit, 1, 0
792, 6, T_Sinc, T_Sinc_UGRG, 800.7, hit, 2, 2
793, 6, T_Sinc, T_Sinc_DRLR, 583.9, hit, 1, 0
794, 6, T_Scon, T_Scon_URLR, 359.3, hit, 1, 0
795, 6, T_Sinc, T_Sinc_DRLR, 330.8, hit, 1, 0
796, 6, T_Sinc, T_Sinc_DRLR, 394.2, hit, 1, 0
797, 6, T_Sinc, T_Sinc_DRLR, 321.6, hit, 1, 0
798, 6, T_Sinc, T_Sinc_UGRG, 509.1, hit, 2, 0
799, 6, T_Sinc, T_Sinc_UGRG, 364.5, hit, 2, 0
800, 6, T_Sinc, T_Sinc_UGRG, 255.9, hit, 2, 0
801, 6, T_Sinc, T_Sinc_UGRG, 307.4, hit, 2, 0
802, 6, T_Sinc, T_Sinc_UGRG, 318.8, hit, 2, 0
803, 6, T_Sinc, T_Sinc_UGRG, 318.3, hit, 2, 0
804, 6, T_Sinc, T_Sinc_UGRG, 457.7, hit, 2, 0
805, 6, T_Sinc, T_Sinc_UGRG, 325.1, hit, 2, 0
806, 6, T_Sinc, T_Sinc_UGRG, 308.6, hit, 2, 0
807, 6, T_Sinc, T_Sinc_UGRG, 288.0, hit, 2, 0
808, 6, T_Sinc, T_Sinc_DRLR, 351.4, hit, 1, 0
809, 6, T_Sinc, T_Sinc_UGRG, 338.9, incorrect, 1, 1
810, 6, T_Scon, T_Scon_URLR, 554.4, hit, 1, 0
811, 6, T_Sinc, T_Sinc_UGRG, 277.8, hit, 2, 0
812, 6, T_Sinc, T_Sinc_UGRG, 309.2, hit, 2, 0
813, 6, T_Sinc, T_Sinc_DRLR, 380.6, hit, 1, 0
814, 6, T_Sinc, T_Sinc_DRLR, 260.1, hit, 1, 0
815, 6, T_Sinc, T_Sinc_DRLR, 323.5, hit, 1, 0
816, 6, T_Scon, T_Scon_DGRG, 390.9, hit, 2, 0
817, 6, T_Sinc, T_Sinc_DRLR, 434.4, hit, 1, 0
818, 6, T_Sinc, T_Sinc_UGRG, 309.9, hit, 2, 0
819, 6, T_Sinc, T_Sinc_DRLR, 329.3, hit, 1, 0
820, 6, T_Scon, T_Scon_URLR, 416.7, hit, 1, 0
821, 6, T_Sinc, T_Sinc_DRLR, 384.1, hit, 1, 0
822, 6, T_Sinc, T_Sinc_UGRG, 347.6, hit, 2, 0
823, 6, T_Sinc, T_Sinc_UGRG, 483.1, hit, 2, 0
824, 6, T_Sinc, T_Sinc_UGRG, 294.4, hit, 2, 0
825, 6, T_Sinc, T_Sinc_UGRG, 353.9, hit, 2, 0
826, 6, T_Sinc, T_Sinc_DRLR, 385.4, hit, 1, 0
827, 6, T_Scon, T_Scon_DGRG, 556.8, hit, 2, 0
828, 6, T_Sinc, T_Sinc_DRLR, 488.2, hit, 1, 0
829, 6, T_Scon, T_Scon_DGRG, 543.4, hit, 2, 0
830, 6, T_Sinc, T_Sinc_UGRG, 402.9, hit, 2, 0
831, 6, T_Sinc, T_Sinc_UGRG, 370.3, hit, 2, 0
832, 6, T_Scon, T_Scon_DGRG, 365.7, hit, 2, 0
833, 6, T_Scon, T_Scon_URLR, 425.2, hit, 1, 0
834, 6, T_Sinc, T_Sinc_UGRG, 476.6, hit, 2, 0
835, 6, T_Sinc, T_Sinc_DRLR, 552.1, hit, 1, 0
836, 6, T_Sinc, T_Sinc_UGRG, 431.4, hit, 2, 0
837, 6, T_Sinc, T_Sinc_UGRG, 394.9, hit, 2, 0
838, 6, T_Sinc, T_Sinc_DRLR, 422.4, hit, 1, 0
839, 6, T_Sinc, T_Sinc_UGRG, 469.7, hit, 2, 0
840, 6, T_Sinc, T_Sinc_UGRG, 513.2, hit, 2, 0
841, 6, T_Sinc, T_Sinc_DRLR, 476.7, hit, 1, 0
842, 6, T_Sinc, T_Sinc_UGRG, 512.0, hit, 2, 0
843, 6, T_Scon, T_Scon_URLR, 435.5, hit, 1, 0
844, 6, T_Sinc, T_Sinc_DRLR, 487.0, hit, 1, 0
845, 6, T_Sinc, T_Sinc_DRLR, 394.3, hit, 1, 0
846, 6, T_Sinc, T_Sinc_DRLR, 309.8, hit, 1, 0
847, 6, T_Sinc, T_Sinc_DRLR, 305.3, hit, 1, 0
848, 6, T_Sinc, T_Sinc_UGRG, 440.7, hit, 2, 0
849, 6, T_Sinc, T_Sinc_DRLR, 396.1, hit, 1, 0
850, 6, T_Scon, T_Scon_DGRG, 471.6, hit, 2, 0
851, 6, T_Scon, T_Scon_DGRG, 379.0, hit, 2, 0
852, 6, T_Sinc, T_Sinc_DRLR, 370.5, hit, 1, 0
853, 6, T_Sinc, T_Sinc_UGRG, 485.9, hit, 2, 0
854, 6, T_Scon, T_Scon_DGRG, 453.3, hit, 2, 0
855, 6, T_Sinc, T_Sinc_DRLR, 432.8, hit, 1, 0
856, 6, T_Sinc, T_Sinc_DRLR, 420.2, hit, 1, 0
857, 6, T_Sinc, T_Sinc_DRLR, 303.6, hit, 1, 0
858, 6, T_Sinc, T_Sinc_DRLR, 399.1, hit, 1, 0
859, 6, T_Sinc, T_Sinc_DRLR, 370.5, hit, 1, 0
860, 6, T_Sinc, T_Sinc_UGRG, 430.0, hit, 2, 0
861, 6, T_Sinc, T_Sinc_DRLR, 649.5, hit, 1, 0
862, 6, T_Sinc, T_Sinc_UGRG, 300.8, hit, 2, 0
863, 6, T_Sinc, T_Sinc_DRLR, 260.3, hit, 1, 0
864, 6, T_Sinc, T_Sinc_DRLR, 311.8, hit, 1, 0
865, 7, T_Scon, T_Scon_URLR, 534.6, hit, 1, 0
866, 7, T_Scon, T_Scon_URLR, 426.0, hit, 1, 0
867, 7, T_Scon, T_Scon_DGRG, 417.5, hit, 2, 0
868, 7, T_Sinc, T_Sinc_UGRG, 516.8, hit, 2, 0
869, 7, T_Scon, T_Scon_URLR, 392.3, hit, 1, 0
870, 7, T_Scon, T_Scon_URLR, 299.7, hit, 1, 0
871, 7, T_Sinc, T_Sinc_DRLR, 447.1, hit, 1, 0
872, 7, T_Scon, T_Scon_URLR, 434.6, hit, 1, 0
873, 7, T_Sinc, T_Sinc_DRLR, 462.0, hit, 1, 0
874, 7, T_Scon, T_Scon_DGRG, 357.5, hit, 2, 0
875, 7, T_Scon, T_Scon_DGRG, 449.0, hit, 2, 0
876, 7, T_Scon, T_Scon_URLR, 420.3, hit, 1, 0
877, 7, T_Scon, T_Scon_DGRG, 483.8, hit, 2, 0
878, 7, T_Sinc, T_Sinc_DRLR, 439.3, hit, 1, 0
879, 7, T_Scon, T_Scon_URLR, 322.6, hit, 1, 0
880, 7, T_Scon, T_Scon_URLR, 366.1, hit, 1, 0
881, 7, T_Sinc, T_Sinc_DRLR, 509.6, hit, 1, 0
882, 7, T_Scon, T_Scon_DGRG, 521.0, hit, 2, 0
883, 7, T_Sinc, T_Sinc_UGRG, 532.4, hit, 2, 0
884, 7, T_Scon, T_Scon_DGRG, 327.8, hit, 2, 0
885, 7, T_Scon, T_Scon_URLR, 307.3, hit, 1, 0
886, 7, T_Sinc, T_Sinc_UGRG, 478.8, hit, 2, 0
887, 7, T_Scon, T_Scon_DGRG, 338.1, hit, 2, 0
888, 7, T_Scon, T_Scon_DGRG, 309.6, hit, 2, 0
889, 7, T_Sinc, T_Sinc_DRLR, 373.1, hit, 1, 0
890, 7, T_Scon, T_Scon_URLR, 436.5, hit, 1, 0
891, 7, T_Scon, T_Scon_URLR, 439.9, hit, 1, 0
892, 7, T_Scon, T_Scon_DGRG, 475.3, hit, 2, 0
893, 7, T_Scon, T_Scon_URLR, 406.8, hit, 1, 0
894, 7, T_Scon, T_Scon_DGRG, 338.2, hit, 2, 0
895, 7, T_Sinc, T_Sinc_UGRG, 309.7, hit, 2, 0
896, 7, T_Scon, T_Scon_DGRG, 321.1, hit, 2, 0
897, 7, T_Scon, T_Scon_URLR, 384.5, hit, 1, 0
898, 7, T_Scon, T_Scon_DGRG, 383.9, hit, 2, 0
899, 7, T_Scon, T_Scon_DGRG, 427.4, hit, 2, 0
900, 7, T_Sinc, T_Sinc_UGRG, 430.9, hit, 2, 0
901, 7, T_Sinc, T_Sinc_UGRG, 906.0, hit, 2, 2
902, 7, T_Scon, T_Scon_DGRG, 341.4, hit, 2, 0
903, 7, T_Scon, T_Scon_URLR, 388.9, hit, 1, 0
904, 7, T_Sinc, T_Sinc_DRLR, 412.3, hit, 1, 0
905, 7, T_Sinc, T_Sinc_UGRG, 431.7, hit, 2, 0
906, 7, T_Scon, T_Scon_URLR, 543.2, hit, 1, 0
907, 7, T_Scon, T_Scon_URLR, 394.7, hit, 1, 0
908, 7, T_Sinc, T_Sinc_DRLR, 462.1, hit, 1, 0
909, 7, T_Scon, T_Scon_URLR, 417.5, hit, 1, 0
910, 7, T_Scon, T_Scon_DGRG, 480.9, hit, 2, 0
911, 7, T_Scon, T_Scon_DGRG, 368.4, hit, 2, 0
912, 7, T_Scon, T_Scon_URLR, 431.8, hit, 1, 0
913, 7, T_Scon, T_Scon_DGRG, 527.2, hit, 2, 0
914, 7, T_Scon, T_Scon_URLR, 374.7, hit, 1, 0
915, 7, T_Scon, T_Scon_DGRG, 526.2, hit, 2, 0
916, 7, T_Sinc, T_Sinc_DRLR, 1009.5, hit, 1, 2
917, 7, T_Scon, T_Scon_URLR, 357.0, hit, 1, 0
918, 7, T_Scon, T_Scon_URLR, 292.5, hit, 1, 0
919, 7, T_Scon, T_Scon_DGRG, 403.9, hit, 2, 0
920, 7, T_Scon, T_Scon_URLR, 615.3, hit, 1, 0
921, 7, T_Scon, T_Scon_DGRG, 674.8, hit, 2, 0
922, 7, T_Scon, T_Scon_DGRG, 418.2, hit, 2, 0
923, 7, T_Scon, T_Scon_DGRG, 341.6, hit, 2, 0
924, 7, T_Scon, T_Scon_URLR, 397.1, hit, 1, 0
925, 7, T_Sinc, T_Sinc_UGRG, 496.5, hit, 2, 0
926, 7, T_Sinc, T_Sinc_UGRG, 347.9, hit, 2, 0
927, 7, T_Scon, T_Scon_URLR, 903.3, hit, 1, 2
928, 7, T_Scon, T_Scon_DGRG, 530.8, hit, 2, 0
929, 7, T_Sinc, T_Sinc_UGRG, 358.3, hit, 2, 0
930, 7, T_Scon, T_Scon_DGRG, 349.6, hit, 2, 0
931, 7, T_Scon, T_Scon_DGRG, 433.1, hit, 2, 0
932, 7, T_Scon, T_Scon_DGRG, 312.6, hit, 2, 0
933, 7, T_Scon, T_Scon_DGRG, 300.0, hit, 2, 0
934, 7, T_Scon, T_Scon_DGRG, 507.4, hit, 2, 0
935, 7, T_Scon, T_Scon_DGRG, 370.9, hit, 2, 0
936, 7, T_Sinc, T_Sinc_UGRG, 422.3, hit, 2, 0
937, 7, T_Scon, T_Scon_URLR, 541.5, hit, 1, 0
938, 7, T_Scon, T_Scon_DGRG, 496.9, hit, 2, 0
939, 7, T_Scon, T_Scon_DGRG, 304.4, hit, 2, 0
940, 7, T_Scon, T_Scon_URLR, 419.8, hit, 1, 0
941, 7, T_Sinc, T_Sinc_UGRG, 355.2, hit, 2, 0
942, 7, T_Scon, T_Scon_DGRG, 510.7, hit, 2, 0
943, 7, T_Scon, T_Scon_URLR, 418.1, hit, 1, 0
944, 7, T_Scon, T_Scon_URLR, 477.5, hit, 1, 0
945, 7, T_Scon, T_Scon_URLR, 273.0, hit, 1, 0
946, 7, T_Scon, T_Scon_URLR, 348.4, hit, 1, 0
947, 7, T_Scon, T_Scon_URLR, 279.9, hit, 1, 0
948, 7, T_Scon, T_Scon_URLR, 251.2, hit, 1, 0
949, 7, T_Sinc, T_Sinc_UGRG, 534.7, hit, 2, 0
950, 7, T_Sinc, T_Sinc_DRLR, 434.2, hit, 1, 0
951, 7, T_Scon, T_Scon_DGRG, 429.5, hit, 2, 0
952, 7, T_Scon, T_Scon_DGRG, 517.0, hit, 2, 0
953, 7, T_Scon, T_Scon_URLR, 376.5, hit, 1, 0
954, 7, T_Scon, T_Scon_DGRG, 475.8, hit, 2, 0
955, 7, T_Sinc, T_Sinc_UGRG, 431.3, hit, 2, 0
956, 7, T_Scon, T_Scon_URLR, 386.8, hit, 1, 0
957, 7, T_Sinc, T_Sinc_DRLR, 270.1, hit, 1, 0
958, 7, T_Scon, T_Scon_URLR, 401.6, hit, 1, 0
959, 7, T_Scon, T_Scon_DGRG, 369.1, hit, 2, 0
960, 7, T_Scon, T_Scon_DGRG, 452.5, hit, 2, 0
961, 7, T_Scon, T_Scon_URLR, 352.0, hit, 1, 0
962, 7, T_Sinc, T_Sinc_UGRG, 471.4, hit, 2, 0
963, 7, T_Scon, T_Scon_DGRG, 594.8, hit, 2, 0
964, 7, T_Scon, T_Scon_DGRG, 450.3, hit, 2, 0
965, 7, T_Scon, T_Scon_DGRG, 413.7, hit, 2, 0
966, 7, T_Sinc, T_Sinc_DRLR, 381.1, hit, 1, 0
967, 7, T_Scon, T_Scon_DGRG, 448.6, hit, 2, 0
968, 7, T_Scon, T_Scon_URLR, 500.0, hit, 1, 0
969, 7, T_Scon, T_Scon_DGRG, 427.5, hit, 2, 0
970, 7, T_Scon, T_Scon_DGRG, 494.9, hit, 2, 0
971, 7, T_Scon, T_Scon_URLR, 402.3, hit, 1, 0
972, 7, T_Scon, T_Scon_URLR, 533.8, hit, 1, 0
973, 7, T_Scon, T_Scon_DGRG, 540.9, hit, 2, 0
974, 7, T_Sinc, T_Sinc_DRLR, 524.4, hit, 1, 0
975, 7, T_Sinc, T_Sinc_UGRG, 463.8, hit, 2, 0
976, 7, T_Sinc, T_Sinc_DRLR, 471.3, hit, 1, 0
977, 7, T_Scon, T_Scon_URLR, 410.6, hit, 1, 0
978, 7, T_Scon, T_Scon_DGRG, 430.1, hit, 2, 0
979, 7, T_Scon, T_Scon_URLR, 369.6, hit, 1, 0
980, 7, T_Scon, T_Scon_DGRG, 437.0, hit, 2, 0
981, 7, T_Sinc, T_Sinc_UGRG, 388.5, incorrect, 1, 1
982, 7, T_Scon, T_Scon_URLR, 423.9, hit, 1, 0
983, 7, T_Scon, T_Scon_DGRG, 427.3, hit, 2, 0
984, 7, T_Scon, T_Scon_DGRG, 334.8, hit, 2, 0
985, 7, T_Scon, T_Scon_URLR, 418.3, hit, 1, 0
986, 7, T_Scon, T_Scon_URLR, 297.7, hit, 1, 0
987, 7, T_Scon, T_Scon_URLR, 249.1, hit, 1, 0
988, 7, T_Scon, T_Scon_URLR, 336.5, hit, 1, 0
989, 7, T_Sinc, T_Sinc_DRLR, 440.0, hit, 1, 0
990, 7, T_Scon, T_Scon_URLR, 611.5, hit, 1, 0
991, 7, T_Scon, T_Scon_URLR, 566.8, hit, 1, 0
992, 7, T_Sinc, T_Sinc_DRLR, 418.3, incorrect, 2, 1
993, 7, T_Scon, T_Scon_DGRG, 313.8, hit, 2, 0
994, 7, T_Sinc, T_Sinc_UGRG, 533.2, hit, 2, 0
995, 7, T_Sinc, T_Sinc_DRLR, 520.6, hit, 1, 0
996, 7, T_Scon, T_Scon_URLR, 536.0, hit, 1, 0
997, 7, T_Sinc, T_Sinc_DRLR, 523.5, hit, 1, 0
998, 7, T_Scon, T_Scon_URLR, 327.0, hit, 1, 0
999, 7, T_Sinc, T_Sinc_DRLR, 450.3, hit, 1, 0
1000, 7, T_Scon, T_Scon_DGRG, 893.8, hit, 2, 2
1001, 7, T_Scon, T_Scon_URLR, 397.3, hit, 1, 0
1002, 7, T_Scon, T_Scon_DGRG, 512.7, hit, 2, 0
1003, 7, T_Scon, T_Scon_DGRG, 532.1, hit, 2, 0
1004, 7, T_Scon, T_Scon_URLR, 307.6, hit, 1, 0
1005, 7, T_Scon, T_Scon_URLR, 283.0, hit, 1, 0
1006, 7, T_Scon, T_Scon_DGRG, 490.4, hit, 2, 0
1007, 7, T_Scon, T_Scon_DGRG, 385.9, hit, 2, 0
1008, 7, T_Scon, T_Scon_URLR, 1069.3, hit, 1, 2
1009, 8, T_Scon, T_Scon_DGRG, 531.1, hit, 2, 0
1010, 8, T_Sinc, T_Sinc_UGRG, 338.6, hit, 2, 0
1011, 8, T_Scon, T_Scon_DGRG, 325.9, hit, 2, 0
1012, 8, T_Scon, T_Scon_URLR, 1089.4, hit, 1, 2
1013, 8, T_Scon, T_Scon_URLR, 368.9, hit, 1, 0
1014, 8, T_Scon, T_Scon_DGRG, 1052.2, hit, 2, 2
1015, 8, T_Sinc, T_Sinc_DRLR, 555.7, incorrect, 2, 1
1016, 8, T_Sinc, T_Sinc_DRLR, 455.1, hit, 1, 0
1017, 8, T_Scon, T_Scon_DGRG, 530.5, hit, 2, 0
1018, 8, T_Scon, T_Scon_URLR, 382.0, hit, 1, 0
1019, 8, T_Sinc, T_Sinc_DRLR, 533.4, hit, 1, 0
1020, 8, T_Scon, T_Scon_DGRG, 532.9, hit, 2, 0
1021, 8, T_Sinc, T_Sinc_DRLR, 416.3, hit, 1, 0
1022, 8, T_Sinc, T_Sinc_DRLR, 387.8, hit, 1, 0
1023, 8, T_Sinc, T_Sinc_UGRG, 543.2, hit, 2, 0
1024, 8, T_Scon, T_Scon_DGRG, 398.6, hit, 2, 0
1025, 8, T_Scon, T_Scon_DGRG, 346.0, hit, 2, 0
1026, 8, T_Scon, T_Scon_DGRG, 477.5, hit, 2, 0
1027, 8, T_Scon, T_Scon_URLR, 397.0, hit, 1, 0
1028, 8, T_Scon, T_Scon_DGRG, 400.3, hit, 2, 0
1029, 8, T_Scon, T_Scon_URLR, 475.8, hit, 1, 0
1030, 8, T_Scon, T_Scon_URLR, 415.3, hit, 1, 0
1031, 8, T_Sinc, T_Sinc_UGRG, 618.7, hit, 2, 0
1032, 8, T_Scon, T_Scon_DGRG, 270.1, hit, 2, 0
1033, 8, T_Scon, T_Scon_URLR, 385.6, hit, 1, 0
1034, 8, T_Sinc, T_Sinc_UGRG, 581.0, hit, 2, 0
1035, 8, T_Sinc, T_Sinc_DRLR, 380.5, hit, 1, 0
1036, 8, T_Sinc, T_Sinc_UGRG, 447.8, hit, 2, 0
1037, 8, T_Scon, T_Scon_DGRG, 475.3, hit, 2, 0
1038, 8, T_Scon, T_Scon_DGRG, 478.8, hit, 2, 0
1039, 8, T_Scon, T_Scon_DGRG, 394.1, hit, 2, 0
1040, 8, T_Scon, T_Scon_DGRG, 297.6, hit, 2, 0
1041, 8, T_Scon, T_Scon_DGRG, 313.1, hit, 2, 0
1042, 8, T_Scon, T_Scon_DGRG, 288.5, hit, 2, 0
1043, 8, T_Scon, T_Scon_URLR, 539.9, hit, 1, 0
1044, 8, T_Scon, T_Scon_DGRG, 495.4, hit, 2, 0
1045, 8, T_Sinc, T_Sinc_UGRG, 678.5, hit, 2, 0
1046, 8, T_Scon, T_Scon_URLR, 521.9, hit, 1, 0
1047, 8, T_Sinc, T_Sinc_DRLR, 317.4, hit, 1, 0
1048, 8, T_Scon, T_Scon_URLR, 328.9, hit, 1, 0
1049, 8, T_Scon, T_Scon_URLR, 284.2, hit, 1, 0
1050, 8, T_Sinc, T_Sinc_UGRG, 399.7, hit, 2, 0
1051, 8, T_Scon, T_Scon_URLR, 403.1, hit, 1, 0
1052, 8, T_Scon, T_Scon_DGRG, 418.6, hit, 2, 0
1053, 8, T_Scon, T_Scon_DGRG, 390.0, hit, 2, 0
1054, 8, T_Scon, T_Scon_URLR, 349.4, hit, 1, 0
1055, 8, T_Scon, T_Scon_URLR, 488.9, incorrect, 2, 1
1056, 8, T_Sinc, T_Sinc_DRLR, 340.4, hit, 1, 0
1057, 8, T_Scon, T_Scon_DGRG, 431.7, hit, 2, 0
1058, 8, T_Scon, T_Scon_DGRG, 303.2, hit, 2, 0
1059, 8, T_Scon, T_Scon_DGRG, 282.7, hit, 2, 0
1060, 8, T_Sinc, T_Sinc_UGRG, 406.0, hit, 2, 0
1061, 8, T_Scon, T_Scon_DGRG, 301.5, hit, 2, 0
1062, 8, T_Scon, T_Scon_URLR, 393.0, hit, 1, 0
1063, 8, T_Scon, T_Scon_URLR, 424.4, hit, 1, 0
1064, 8, T_Sinc, T_Sinc_UGRG, 315.9, hit, 2, 0
1065, 8, T_Sinc, T_Sinc_DRLR, 475.2, hit, 1, 0
1066, 8, T_Scon, T_Scon_DGRG, 430.7, hit, 2, 0
1067, 8, T_Sinc, T_Sinc_DRLR, 622.1, hit, 1, 0
1068, 8, T_Scon, T_Scon_URLR, 369.5, hit, 1, 0
1069, 8, T_Scon, T_Scon_DGRG, 489.0, hit, 2, 0
1070, 8, T_Scon, T_Scon_URLR, 404.5, hit, 1, 0
1071, 8, T_Scon, T_Scon_URLR, 375.8, hit, 1, 0
1072, 8, T_Scon, T_Scon_URLR, 363.3, hit, 1, 0
1073, 8, T_Scon, T_Scon_URLR, 378.8, hit, 1, 0
1074, 8, T_Scon, T_Scon_DGRG, 378.2, hit, 2, 0
1075, 8, T_Scon, T_Scon_URLR, 837.6, hit, 1, 2
1076, 8, T_Scon, T_Scon_URLR, 377.1, hit, 1, 0
1077, 8, T_Scon, T_Scon_URLR, 320.5, hit, 1, 0
1078, 8, T_Scon, T_Scon_URLR, 244.0, hit, 1, 0
1079, 8, T_Sinc, T_Sinc_DRLR, 391.4, hit, 1, 0
1080, 8, T_Scon, T_Scon_DGRG, 350.8, hit, 2, 0
1081, 8, T_Scon, T_Scon_URLR, 574.1, hit, 1, 0
1082, 8, T_Sinc, T_Sinc_DRLR, 317.4, hit, 1, 0
1083, 8, T_Scon, T_Scon_URLR, 384.9, incorrect, 2, 1
1084, 8, T_Sinc, T_Sinc_DRLR, 384.3, hit, 1, 0
1085, 8, T_Sinc, T_Sinc_UGRG, 395.8, hit, 2, 0
1086, 8, T_Scon, T_Scon_URLR, 311.1, hit, 1, 0
1087, 8, T_Sinc, T_Sinc_UGRG, 450.6, hit, 2, 0
1088, 8, T_Scon, T_Scon_DGRG, 450.1, hit, 2, 0
1089, 8, T_Scon, T_Scon_DGRG, 317.5, hit, 2, 0
1090, 8, T_Scon, T_Scon_URLR, 333.0, hit, 1, 0
1091, 8, T_Scon, T_Scon_URLR, 272.3, hit, 1, 0
1092, 8, T_Scon, T_Scon_URLR, 315.8, hit, 1, 0
1093, 8, T_Scon, T_Scon_URLR, 279.3, hit, 1, 0
1094, 8, T_Scon, T_Scon_DGRG, 366.7, hit, 2, 0
1095, 8, T_Sinc, T_Sinc_DRLR, 378.1, hit, 1, 0
1096, 8, T_Scon, T_Scon_DGRG, 477.6, hit, 2, 0
1097, 8, T_Scon, T_Scon_DGRG, 321.0, hit, 2, 0
1098, 8, T_Scon, T_Scon_URLR, 452.5, hit, 1, 0
1099, 8, T_Scon, T_Scon_URLR, 399.9, hit, 1, 0
1100, 8, T_Scon, T_Scon_URLR, 279.3, hit, 1, 0
1101, 8, T_Scon, T_Scon_DGRG, 398.8, hit, 2, 0
1102, 8, T_Sinc, T_Sinc_DRLR, 422.3, hit, 1, 0
1103, 8, T_Scon, T_Scon_DGRG, 417.6, incorrect, 1, 1
1104, 8, T_Scon, T_Scon_DGRG, 469.1, hit, 2, 0
1105, 8, T_Scon, T_Scon_DGRG, 372.5, hit, 2, 0
1106, 8, T_Scon, T_Scon_DGRG, 279.9, hit, 2, 0
1107, 8, T_Sinc, T_Sinc_UGRG, 359.4, hit, 2, 0
1108, 8, T_Scon, T_Scon_DGRG, 310.8, hit, 2, 0
1109, 8, T_Sinc, T_Sinc_UGRG, 362.3, hit, 2, 0
1110, 8, T_Scon, T_Scon_URLR, 293.8, hit, 1, 0
1111, 8, T_Scon, T_Scon_DGRG, 413.1, hit, 2, 0
1112, 8, T_Scon, T_Scon_URLR, 416.6, hit, 1, 0
1113, 8, T_Scon, T_Scon_URLR, 300.1, hit, 1, 0
1114, 8, T_Scon, T_Scon_DGRG, 423.5, hit, 2, 0
1115, 8, T_Sinc, T_Sinc_UGRG, 502.9, hit, 2, 0
1116, 8, T_Sinc, T_Sinc_UGRG, 370.4, hit, 2, 0
1117, 8, T_Scon, T_Scon_URLR, 489.6, hit, 1, 0
1118, 8, T_Scon, T_Scon_DGRG, 460.9, hit, 2, 0
1119, 8, T_Scon, T_Scon_DGRG, 464.4, hit, 2, 0
1120, 8, T_Scon, T_Scon_URLR, 351.8, hit, 1, 0
1121, 8, T_Scon, T_Scon_URLR, 355.3, hit, 1, 0
1122, 8, T_Scon, T_Scon_URLR, 342.7, hit, 1, 0
1123, 8, T_Scon, T_Scon_URLR, 398.1, hit, 1, 0
1124, 8, T_Scon, T_Scon_URLR, 325.6, hit, 1, 0
1125, 8, T_Sinc, T_Sinc_UGRG, 465.1, hit, 2, 0
1126, 8, T_Scon, T_Scon_URLR, 484.4, hit, 1, 0
1127, 8, T_Sinc, T_Sinc_DRLR, 447.9, hit, 1, 0
1128, 8, T_Scon, T_Scon_URLR, 343.4, hit, 1, 0
1129, 8, T_Scon, T_Scon_DGRG, 450.8, hit, 2, 0
1130, 8, T_Scon, T_Scon_DGRG, 334.2, hit, 2, 0
1131, 8, T_Scon, T_Scon_DGRG, 369.7, hit, 2, 0
1132, 8, T_Scon, T_Scon_URLR, 437.1, hit, 1, 0
1133, 8, T_Scon, T_Scon_DGRG, 440.6, hit, 2, 0
1134, 8, T_Scon, T_Scon_URLR, 484.0, hit, 1, 0
1135, 8, T_Scon, T_Scon_URLR, 355.4, hit, 1, 0
1136, 8, T_Scon, T_Scon_URLR, 366.9, hit, 1, 0
1137, 8, T_Scon, T_Scon_DGRG, 510.3, hit, 2, 0
1138, 8, T_Scon, T_Scon_URLR, 449.7, hit, 1, 0
1139, 8, T_Scon, T_Scon_DGRG, 325.2, hit, 2, 0
1140, 8, T_Sinc, T_Sinc_UGRG, 448.6, hit, 2, 0
1141, 8, T_Scon, T_Scon_DGRG, 416.0, hit, 2, 0
1142, 8, T_Scon, T_Scon_DGRG, 399.5, hit, 2, 0
1143, 8, T_Scon, T_Scon_URLR, 362.9, hit, 1, 0
1144, 8, T_Scon, T_Scon_DGRG, 394.4, hit, 2, 0
1145, 8, T_Sinc, T_Sinc_DRLR, 493.7, hit, 1, 0
1146, 8, T_Scon, T_Scon_DGRG, 697.2, hit, 2, 0
1147, 8, T_Scon, T_Scon_URLR, 396.7, hit, 1, 0
1148, 8, T_Scon, T_Scon_DGRG, 480.1, hit, 2, 0
1149, 8, T_Scon, T_Scon_URLR, 463.5, hit, 1, 0
1150, 8, T_Sinc, T_Sinc_DRLR, 459.0, hit, 1, 0
1151, 8, T_Sinc, T_Sinc_UGRG, 426.4, hit, 2, 0
1152, 8, T_Scon, T_Scon_DGRG, 669.9, hit, 2, 0
1153, 9, T_Scon, T_Scon_URLR, 367.2, hit, 1, 0
1154, 9, T_Sinc, T_Sinc_UGRG, 462.6, hit, 2, 0
1155, 9, T_Scon, T_Scon_URLR, 410.1, hit, 1, 0
1156, 9, T_Scon, T_Scon_DGRG, 389.5, hit, 2, 0
1157, 9, T_Sinc, T_Sinc_DRLR, 344.9, hit, 1, 0
1158, 9, T_Sinc, T_Sinc_UGRG, 412.4, hit, 2, 0
1159, 9, T_Scon, T_Scon_URLR, 263.8, hit, 1, 0
1160, 9, T_Scon, T_Scon_URLR, 451.2, hit, 1, 0
1161, 9, T_Scon, T_Scon_URLR, 278.7, hit, 1, 0
1162, 9, T_Scon, T_Scon_DGRG, 406.1, hit, 2, 0
1163, 9, T_Scon, T_Scon_DGRG, 301.5, hit, 2, 0
1164, 9, T_Scon, T_Scon_DGRG, 313.0, hit, 2, 0
1165, 9, T_Scon, T_Scon_DGRG, 288.4, hit, 2, 0
1166, 9, T_Sinc, T_Sinc_UGRG, 335.9, hit, 2, 0
1167, 9, T_Sinc, T_Sinc_UGRG, 379.3, hit, 2, 0
1168, 9, T_Sinc, T_Sinc_UGRG, 318.7, hit, 2, 0
1169, 9, T_Scon, T_Scon_URLR, 382.2, hit, 1, 0
1170, 9, T_Scon, T_Scon_URLR, 281.6, hit, 1, 0
1171, 9, T_Scon, T_Scon_URLR, 417.0, hit, 1, 0
1172, 9, T_Scon, T_Scon_URLR, 300.5, hit, 1, 0
1173, 9, T_Scon, T_Scon_DGRG, 408.0, hit, 2, 0
1174, 9, T_Scon, T_Scon_URLR, 351.3, hit, 1, 0
1175, 9, T_Sinc, T_Sinc_DRLR, 378.8, hit, 1, 0
1176, 9, T_Scon, T_Scon_URLR, 270.2, hit, 1, 0
1177, 9, T_Sinc, T_Sinc_UGRG, 569.7, hit, 2, 0
1178, 9, T_Scon, T_Scon_DGRG, 437.1, hit, 2, 0
1179, 9, T_Sinc, T_Sinc_UGRG, 316.5, hit, 2, 0
1180, 9, T_Scon, T_Scon_DGRG, 368.0, hit, 2, 0
1181, 9, T_Sinc, T_Sinc_DRLR, 411.5, hit, 1, 0
1182, 9, T_Scon, T_Scon_DGRG, 398.8, hit, 2, 0
1183, 9, T_Scon, T_Scon_URLR, 466.3, hit, 1, 0
1184, 9, T_Scon, T_Scon_URLR, 341.8, hit, 1, 0
1185, 9, T_Scon, T_Scon_URLR, 305.1, hit, 1, 0
1186, 9, T_Scon, T_Scon_URLR, 272.6, hit, 1, 0
1187, 9, T_Scon, T_Scon_DGRG, 364.1, hit, 2, 0
1188, 9, T_Sinc, T_Sinc_DRLR, 407.5, hit, 1, 0
1189, 9, T_Scon, T_Scon_DGRG, 498.7, hit, 2, 0
1190, 9, T_Scon, T_Scon_URLR, 358.1, hit, 1, 0
1191, 9, T_Scon, T_Scon_URLR, 273.5, hit, 1, 0
1192, 9, T_Scon, T_Scon_DGRG, 432.9, hit, 2, 0
1193, 9, T_Scon, T_Scon_DGRG, 328.4, hit, 2, 0
1194, 9, T_Scon, T_Scon_DGRG, 307.9, hit, 2, 0
1195, 9, T_Scon, T_Scon_URLR, 331.2, hit, 1, 0
1196, 9, T_Scon, T_Scon_URLR, 358.7, hit, 1, 0
1197, 9, T_Scon, T_Scon_DGRG, 386.1, hit, 2, 0
1198, 9, T_Scon, T_Scon_URLR, 337.6, hit, 1, 0
1199, 9, T_Scon, T_Scon_DGRG, 441.0, hit, 2, 0
1200, 9, T_Scon, T_Scon_DGRG, 420.4, hit, 2, 0
1201, 9, T_Scon, T_Scon_URLR, 363.9, hit, 1, 0
1202, 9, T_Scon, T_Scon_DGRG, 415.4, hit, 2, 0
1203, 9, T_Sinc, T_Sinc_DRLR, 534.8, hit, 1, 0
1204, 9, T_Scon, T_Scon_DGRG, 382.2, hit, 2, 0
1205, 9, T_Scon, T_Scon_DGRG, 349.6, hit, 2, 0
1206, 9, T_Scon, T_Scon_DGRG, 353.1, hit, 2, 0
1207, 9, T_Scon, T_Scon_DGRG, 328.5, hit, 2, 0
1208, 9, T_Scon, T_Scon_URLR, 395.9, hit, 1, 0
1209, 9, T_Sinc, T_Sinc_UGRG, 471.4, hit, 2, 0
1210, 9, T_Scon, T_Scon_DGRG, 438.9, hit, 2, 0
1211, 9, T_Scon, T_Scon_URLR, 358.2, hit, 1, 0
1212, 9, T_Sinc, T_Sinc_DRLR, 285.7, hit, 1, 0
1213, 9, T_Scon, T_Scon_URLR, 369.1, hit, 1, 0
1214, 9, T_Scon, T_Scon_URLR, 364.6, hit, 1, 0
1215, 9, T_Scon, T_Scon_DGRG, 372.0, hit, 2, 0
1216, 9, T_Sinc, T_Sinc_DRLR, 451.4, hit, 1, 0
1217, 9, T_Scon, T_Scon_DGRG, 478.9, incorrect, 1, 1
1218, 9, T_Scon, T_Scon_DGRG, 454.4, hit, 2, 0
1219, 9, T_Scon, T_Scon_DGRG, 433.7, hit, 2, 0
1220, 9, T_Scon, T_Scon_URLR, 493.2, hit, 1, 0
1221, 9, T_Sinc, T_Sinc_DRLR, 376.7, hit, 1, 0
1222, 9, T_Scon, T_Scon_URLR, 420.1, hit, 1, 0
1223, 9, T_Scon, T_Scon_DGRG, 407.5, hit, 2, 0
1224, 9, T_Scon, T_Scon_DGRG, 343.0, hit, 2, 0
1225, 9, T_Sinc, T_Sinc_UGRG, 606.2, hit, 2, 0
1226, 9, T_Sinc, T_Sinc_DRLR, 393.5, hit, 1, 0
1227, 9, T_Scon, T_Scon_URLR, 445.0, hit, 1, 0
1228, 9, T_Scon, T_Scon_DGRG, 520.5, hit, 2, 0
1229, 9, T_Scon, T_Scon_URLR, 535.9, hit, 1, 0
1230, 9, T_Scon, T_Scon_DGRG, 347.3, hit, 2, 0
1231, 9, T_Scon, T_Scon_DGRG, 346.8, hit, 2, 0
1232, 9, T_Scon, T_Scon_DGRG, 278.2, hit, 2, 0
1233, 9, T_Sinc, T_Sinc_UGRG, 629.6, hit, 2, 0
1234, 9, T_Scon, T_Scon_DGRG, 329.0, hit, 2, 0
1235, 9, T_Scon, T_Scon_URLR, 396.5, hit, 1, 0
1236, 9, T_Sinc, T_Sinc_UGRG, 436.0, hit, 2, 0
1237, 9, T_Scon, T_Scon_DGRG, 315.4, hit, 2, 0
1238, 9, T_Scon, T_Scon_DGRG, 382.8, hit, 2, 0
1239, 9, T_Scon, T_Scon_DGRG, 390.3, hit, 2, 0
1240, 9, T_Scon, T_Scon_URLR, 577.7, hit, 1, 0
1241, 9, T_Sinc, T_Sinc_UGRG, 469.1, hit, 2, 0
1242, 9, T_Sinc, T_Sinc_DRLR, 444.6, hit, 1, 0
1243, 9, T_Sinc, T_Sinc_UGRG, 440.0, hit, 2, 0
1244, 9, T_Scon, T_Scon_DGRG, 483.5, hit, 2, 0
1245, 9, T_Scon, T_Scon_URLR, 654.8, hit, 1, 0
1246, 9, T_Scon, T_Scon_DGRG, 438.3, hit, 2, 0
1247, 9, T_Sinc, T_Sinc_DRLR, 625.8, hit, 1, 0
1248, 9, T_Sinc, T_Sinc_UGRG, 725.1, hit, 2, 0
1249, 9, T_Sinc, T_Sinc_DRLR, 536.6, hit, 1, 0
1250, 9, T_Scon, T_Scon_DGRG, 468.1, hit, 2, 0
1251, 9, T_Scon, T_Scon_URLR, 471.5, hit, 1, 0
1252, 9, T_Sinc, T_Sinc_DRLR, 790.9, hit, 1, 2
1253, 9, T_Scon, T_Scon_URLR, 518.4, hit, 1, 0
1254, 9, T_Scon, T_Scon_URLR, 449.8, hit, 1, 0
1255, 9, T_Scon, T_Scon_URLR, 349.2, hit, 1, 0
1256, 9, T_Scon, T_Scon_URLR, 328.7, hit, 1, 0
1257, 9, T_Scon, T_Scon_DGRG, 380.1, hit, 2, 0
1258, 9, T_Sinc, T_Sinc_UGRG, 403.6, hit, 2, 0
1259, 9, T_Scon, T_Scon_URLR, 474.9, hit, 1, 0
1260, 9, T_Scon, T_Scon_URLR, 534.4, hit, 1, 0
1261, 9, T_Scon, T_Scon_URLR, 501.7, hit, 1, 0
1262, 9, T_Scon, T_Scon_DGRG, 369.1, hit, 2, 0
1263, 9, T_Scon, T_Scon_URLR, 396.4, hit, 1, 0
1264, 9, T_Scon, T_Scon_URLR, 375.9, hit, 1, 0
1265, 9, T_Scon, T_Scon_URLR, 419.4, hit, 1, 0
1266, 9, T_Sinc, T_Sinc_UGRG, 478.7, hit, 2, 0
1267, 9, T_Scon, T_Scon_URLR, 482.2, hit, 1, 0
1268, 9, T_Sinc, T_Sinc_DRLR, 457.7, hit, 1, 0
1269, 9, T_Sinc, T_Sinc_DRLR, 357.1, hit, 1, 0
1270, 9, T_Sinc, T_Sinc_UGRG, 416.6, hit, 2, 0
1271, 9, T_Sinc, T_Sinc_DRLR, 476.0, hit, 1, 0
1272, 9, T_Scon, T_Scon_DGRG, 375.5, hit, 2, 0
1273, 9, T_Scon, T_Scon_DGRG, 378.9, hit, 2, 0
1274, 9, T_Scon, T_Scon_DGRG, 350.3, hit, 2, 0
1275, 9, T_Scon, T_Scon_DGRG, 329.7, hit, 2, 0
1276, 9, T_Scon, T_Scon_URLR, 385.2, hit, 1, 0
1277, 9, T_Scon, T_Scon_DGRG, 336.6, hit, 2, 0
1278, 9, T_Scon, T_Scon_URLR, 372.0, hit, 1, 0
1279, 9, T_Scon, T_Scon_URLR, 731.5, hit, 1, 0
1280, 9, T_Scon, T_Scon_DGRG, 371.0, hit, 2, 0
1281, 9, T_Scon, T_Scon_URLR, 430.4, hit, 1, 0
1282, 9, T_Sinc, T_Sinc_DRLR, 433.8, hit, 1, 0
1283, 9, T_Scon, T_Scon_URLR, 457.2, hit, 1, 0
1284, 9, T_Scon, T_Scon_DGRG, 316.7, hit, 2, 0
1285, 9, T_Scon, T_Scon_URLR, 440.2, hit, 1, 0
1286, 9, T_Scon, T_Scon_URLR, 351.5, hit, 1, 0
1287, 9, T_Scon, T_Scon_DGRG, 331.0, hit, 2, 0
1288, 9, T_Scon, T_Scon_DGRG, 374.5, hit, 2, 0
1289, 9, T_Scon, T_Scon_DGRG, 381.9, hit, 2, 0
1290, 9, T_Sinc, T_Sinc_DRLR, 393.3, hit, 1, 0
1291, 9, T_Scon, T_Scon_DGRG, 764.7, hit, 2, 2
1292, 9, T_Sinc, T_Sinc_UGRG, 440.2, hit, 2, 0
1293, 9, T_Scon, T_Scon_DGRG, 379.7, hit, 2, 0
1294, 9, T_Scon, T_Scon_URLR, 415.0, hit, 1, 0
1295, 9, T_Scon, T_Scon_URLR, 370.5, hit, 1, 0
1296, 9, T_Scon, T_Scon_URLR, 398.0, hit, 1, 0
