trial_index, block, condition, full_condition_code, RT, response_type, response_key, error_outlier
1,1, T_Sinc, T_Sinc_DGLG,382.4, hit,1,0
2,1, T_Scon, T_Scon_DRRR,377.8, hit,2,0
3,1, T_Sinc, T_Sinc_DGLG,469.3, hit,1,0
4,1, T_Scon, T_Scon_DRRR,344.7, hit,2,0
5,1, T_Sinc, T_Sinc_URRR,436.2, hit,2,0
6,1, T_Scon, T_Scon_UGLG,427.6, hit,1,0
7,1, T_Sinc, T_Sinc_DGLG,403.1, hit,1,0
8,1, T_Sinc, T_Sinc_DGLG,350.5, hit,1,0
9,1, T_Scon, T_Scon_UGLG,406, hit,1,0
10,1, T_Sinc, T_Sinc_URRR,385.3, hit,2,0
11,1, T_Sinc, T_Sinc_URRR,372.8, hit,2,0
12,1, T_Sinc, T_Sinc_URRR,320.3, hit,2,0
13,1, T_Scon, T_Scon_UGLG,507.7, hit,1,0
14,1, T_Sinc, T_Sinc_DGLG,395.1, hit,1,0
15,1, T_Sinc, T_Sinc_URRR,414.6, hit,2,0
16,1, T_Scon, T_Scon_DRRR,602, hit,2,0
17,1, T_Sinc, T_Sinc_URRR,433.4, hit,2,0
18,1, T_Sinc, T_Sinc_DGLG,496.8, hit,1,0
19,1, T_Sinc, T_Sinc_DGLG,520.2, hit,1,0
20,1, T_Sinc, T_Sinc_URRR,339.7, hit,2,0
21,1, T_Sinc, T_Sinc_DGLG,395.1, hit,1,0
22,1, T_Sinc, T_Sinc_URRR,398.6, hit,2,0
23,1, T_Scon, T_Scon_DRRR,366, hit,2,0
24,1, T_Sinc, T_Sinc_URRR,389.5, hit,2,0
25,1, T_Sinc, T_Sinc_DGLG,452.9, hit,1,0
26,1, T_Scon, T_Scon_DRRR,536.4, hit,2,0
27,1, T_Sinc, T_Sinc_URRR,527.8, hit,2,0
28,1, T_Sinc, T_Sinc_URRR,387.2, hit,2,0
29,1, T_Sinc, T_Sinc_DGLG,638.7, hit,1,0
30,1, T_Sinc, T_Sinc_URRR,394, hit,2,0
31,1, T_Scon, T_Scon_UGLG,509.5, hit,1,0
32,1, T_Sinc, T_Sinc_DGLG,493, hit,1,0
33,1, T_Sinc, T_Sinc_URRR,480.4, hit,2,0
34,1, T_Sinc, T_Sinc_DGLG,411.9, hit,1,0
35,1, T_Sinc, T_Sinc_DGLG,399.3, hit,1,0
36,1, T_Sinc, T_Sinc_URRR,490.7, hit,2,0
37,1, T_Sinc, T_Sinc_DGLG,425.9, hit,1,0
38,1, T_Sinc, T_Sinc_URRR,397.3, hit,2,0
39,1, T_Sinc, T_Sinc_URRR,512.7, hit,2,0
40,1, T_Sinc, T_Sinc_URRR,500.2, hit,2,0
41,1, T_Scon, T_Scon_UGLG,447.6, hit,1,0
42,1, T_Sinc, T_Sinc_DGLG,455.1, hit,1,0
43,1, T_Sinc, T_Sinc_URRR,506.5, hit,2,0
44,1, T_Sinc, T_Sinc_URRR,373.9, hit,2,0
45,1, T_Sinc, T_Sinc_DGLG,521.3, hit,1,0
46,1, T_Sinc, T_Sinc_URRR,368.8, hit,2,0
47,1, T_Sinc, T_Sinc_DGLG,468.3, hit,1,0
48,1, T_Sinc, T_Sinc_URRR,607.7, hit,2,0
49,1, T_Sinc, T_Sinc_DGLG,371.1, hit,1,0
50,1, T_Sinc, T_Sinc_URRR,558.6, hit,2,0
51,1, T_Sinc, T_Sinc_DGLG,370, hit,1,0
52,1, T_Sinc, T_Sinc_URRR,573.5, hit,2,0
53,1, T_Sinc, T_Sinc_DGLG,504.9, hit,1,0
54,1, T_Scon, T_Scon_DRRR,348.4, hit,2,0
55,1, T_Sinc, T_Sinc_DGLG,419.7, hit,1,0
56,1, T_Sinc, T_Sinc_URRR,435.1, hit,2,0
57,1, T_Sinc, T_Sinc_URRR,346.6, hit,2,0
58,1, T_Sinc, T_Sinc_DGLG,462.1, hit,1,0
59,1, T_Sinc, T_Sinc_DGLG,449.5, hit,1,0
60,1, T_Scon, T_Scon_DRRR,565, hit,2,0
61,1, T_Sinc, T_Sinc_URRR,512.4, hit,2,0
62,1, T_Sinc, T_Sinc_DGLG,499.8, hit,1,0
63,1, T_Sinc, T_Sinc_URRR,479.2, hit,2,0
64,1, T_Sinc, T_Sinc_URRR,330.7, hit,2,0
65,1, T_Scon, T_Scon_UGLG,486.1, hit,1,0
66,1, T_Sinc, T_Sinc_URRR,373.5, hit,2,0
67,1, T_Scon, T_Scon_DRRR,565, hit,2,0
68,1, T_Scon, T_Scon_UGLG,576.4, hit,1,0
69,1, T_Scon, T_Scon_UGLG,791.9, hit,1,2
70,1, T_Sinc, T_Sinc_DGLG,435.2, hit,1,0
71,1, T_Sinc, T_Sinc_DGLG,326.7, hit,1,0
72,1, T_Sinc, T_Sinc_DGLG,310.1, hit,1,0
73,1, T_Sinc, T_Sinc_DGLG,1233.4, hit,1,2
74,1, T_Sinc, T_Sinc_URRR,596.8, hit,2,0
75,1, T_Sinc, T_Sinc_DGLG,452.1, hit,1,0
76,1, T_Sinc, T_Sinc_DGLG,383.6, hit,1,0
77,1, T_Sinc, T_Sinc_DGLG,563, hit,1,0
78,1, T_Scon, T_Scon_UGLG,582.5, hit,1,0
79,1, T_Sinc, T_Sinc_DGLG,489.9, hit,1,0
80,1, T_Sinc, T_Sinc_URRR,397.4, hit,2,0
81,1, T_Scon, T_Scon_UGLG,440.8, incorrect,2,1
82,1, T_Sinc, T_Sinc_DGLG,352.3, hit,1,0
83,1, T_Scon, T_Scon_DRRR,415.7, hit,2,0
84,1, T_Sinc, T_Sinc_DGLG,427.2, hit,1,0
85,1, T_Sinc, T_Sinc_DGLG,886.6, incorrect,2,1
86,1, T_Sinc, T_Sinc_DGLG,533.9, hit,1,0
87,1, T_Scon, T_Scon_DRRR,409.4, hit,2,0
88,1, T_Sinc, T_Sinc_DGLG,524.9, hit,1,0
89,1, T_Sinc, T_Sinc_URRR,484.3, hit,2,0
90,1, T_Sinc, T_Sinc_URRR,519.8, hit,2,0
91,1, T_Sinc, T_Sinc_URRR,459.2, hit,2,0
92,1, T_Sinc, T_Sinc_URRR,206.6, incorrect,1,1
93,1, T_Scon, T_Scon_UGLG,482, incorrect,2,1
94,1, T_Sinc, T_Sinc_URRR,509.5, hit,2,0
95,1, T_Sinc, T_Sinc_DGLG,456.9, hit,1,0
96,1, T_Sinc, T_Sinc_DGLG,436.4, hit,1,0
97,1, T_Sinc, T_Sinc_URRR,443.8, hit,2,0
98,1, T_Sinc, T_Sinc_DGLG,511.3, hit,1,0
99,1, T_Scon, T_Scon_UGLG,434.7, incorrect,2,1
100,1, T_Sinc, T_Sinc_URRR,610.1, incorrect,1,1
101,1, T_Scon, T_Scon_DRRR,589.6, hit,2,0
102,1, T_Scon, T_Scon_UGLG,489, hit,1,0
103,1, T_Sinc, T_Sinc_DGLG,492.5, hit,1,0
104,1, T_Sinc, T_Sinc_DGLG,619.8, hit,1,0
105,1, T_Sinc, T_Sinc_URRR,687.3, hit,2,2
106,1, T_Sinc, T_Sinc_URRR,502.7, hit,2,0
107,1, T_Sinc, T_Sinc_DGLG,406.2, hit,1,0
108,1, T_Sinc, T_Sinc_URRR,625.6, hit,2,0
109,1, T_Sinc, T_Sinc_DGLG,448.9, hit,1,0
110,1, T_Scon, T_Scon_UGLG,500.2, hit,1,0
111,1, T_Sinc, T_Sinc_URRR,451.6, hit,2,0
112,1, T_Sinc, T_Sinc_DGLG,379.1, hit,1,0
113,1, T_Sinc, T_Sinc_URRR,562.5, hit,2,0
114,1, T_Scon, T_Scon_DRRR,382, hit,2,0
115,1, T_Sinc, T_Sinc_DGLG,437.4, hit,1,0
116,1, T_Sinc, T_Sinc_URRR,352.9, hit,2,0
117,1, T_Scon, T_Scon_DRRR,340.3, hit,2,0
118,1, T_Sinc, T_Sinc_URRR,507.8, hit,2,0
119,1, T_Sinc, T_Sinc_DGLG,451.1, hit,1,0
120,1, T_Scon, T_Scon_DRRR,434.6, hit,2,0
121,1, T_Scon, T_Scon_DRRR,334, hit,2,0
122,1, T_Scon, T_Scon_DRRR,345.5, hit,2,0
123,1, T_Sinc, T_Sinc_URRR,568.9, hit,2,0
124,1, T_Scon, T_Scon_UGLG,636.3, hit,1,0
125,1, T_Sinc, T_Sinc_URRR,475.8, incorrect,1,1
126,1, T_Sinc, T_Sinc_URRR,363.2, hit,2,0
127,1, T_Sinc, T_Sinc_URRR,522.7, hit,2,0
128,1, T_Sinc, T_Sinc_DGLG,466, hit,1,0
129,1, T_Sinc, T_Sinc_URRR,397.5, hit,2,0
130,1, T_Sinc, T_Sinc_URRR,400.9, hit,2,0
131,1, T_Sinc, T_Sinc_DGLG,404.4, hit,1,0
132,1, T_Scon, T_Scon_UGLG,407.8, hit,1,0
133,1, T_Sinc, T_Sinc_DGLG,371.3, hit,1,0
134,1, T_Sinc, T_Sinc_URRR,630.7, hit,2,0
135,1, T_Scon, T_Scon_DRRR,474.2, hit,2,0
136,1, T_Sinc, T_Sinc_DGLG,417.6, hit,1,0
137,1, T_Sinc, T_Sinc_DGLG,437.1, hit,1,0
138,1, T_Scon, T_Scon_UGLG,488.4, hit,1,0
139,1, T_Scon, T_Scon_UGLG,415.9, hit,1,0
140,1, T_Sinc, T_Sinc_DGLG,387.3, hit,1,0
141,1, T_Sinc, T_Sinc_URRR,550.8, hit,2,0
142,1, T_Sinc, T_Sinc_DGLG,390.2, hit,1,0
143,1, T_Scon, T_Scon_DRRR,409.7, hit,2,0
144,1, T_Sinc, T_Sinc_URRR,357.1, hit,2,0
145,2, T_Sinc, T_Sinc_URRR,664.5, hit,2,0
146,2, T_Sinc, T_Sinc_URRR,403.9, hit,2,0
147,2, T_Sinc, T_Sinc_DGLG,367.3, hit,1,0
148,2, T_Sinc, T_Sinc_DGLG,558.8, hit,1,0
149,2, T_Sinc, T_Sinc_URRR,406.2, hit,2,0
150,2, T_Sinc, T_Sinc_URRR,317.7, hit,2,0
151,2, T_Sinc, T_Sinc_URRR,333.1, hit,2,0
152,2, T_Sinc, T_Sinc_URRR,360.5, hit,2,0
153,2, T_Sinc, T_Sinc_URRR,311.9, hit,2,0
154,2, T_Sinc, T_Sinc_DGLG,403.4, hit,1,0
155,2, T_Sinc, T_Sinc_URRR,498.8, hit,2,0
156,2, T_Scon, T_Scon_DRRR,390.3, incorrect,1,1
157,2, T_Sinc, T_Sinc_DGLG,545.7, hit,1,0
158,2, T_Scon, T_Scon_UGLG,401.2, hit,1,0
159,2, T_Sinc, T_Sinc_URRR,460.6, hit,2,0
160,2, T_Sinc, T_Sinc_DGLG,480.1, hit,1,0
161,2, T_Sinc, T_Sinc_DGLG,351.5, hit,1,0
162,2, T_Sinc, T_Sinc_DGLG,411, hit,1,0
163,2, T_Scon, T_Scon_UGLG,470.3, hit,1,0
164,2, T_Scon, T_Scon_DRRR,517.7, hit,2,0
165,2, T_Scon, T_Scon_UGLG,481.2, hit,1,0
166,2, T_Scon, T_Scon_UGLG,428.6, hit,1,0
167,2, T_Sinc, T_Sinc_DGLG,384.1, hit,1,0
168,2, T_Sinc, T_Sinc_URRR,411.5, hit,2,0
169,2, T_Sinc, T_Sinc_URRR,367, hit,2,0
170,2, T_Scon, T_Scon_DRRR,442.4, hit,2,0
171,2, T_Scon, T_Scon_DRRR,345.9, hit,2,0
172,2, T_Sinc, T_Sinc_URRR,153.3, incorrect,1,1
173,2, T_Sinc, T_Sinc_URRR,28.8, hit,2,3
174,2, T_Sinc, T_Sinc_URRR,372.1, hit,2,0
175,2, T_Sinc, T_Sinc_URRR,511.6, hit,2,0
176,2, T_Sinc, T_Sinc_DGLG,483, hit,1,0
177,2, T_Sinc, T_Sinc_DGLG,294.5, hit,1,0
178,2, T_Scon, T_Scon_UGLG,417.9, hit,1,0
179,2, T_Sinc, T_Sinc_URRR,317.4, hit,2,0
180,2, T_Scon, T_Scon_UGLG,472.8, hit,1,0
181,2, T_Sinc, T_Sinc_URRR,676, hit,2,2
182,2, T_Sinc, T_Sinc_DGLG,479.4, hit,1,0
183,2, T_Sinc, T_Sinc_DGLG,466.8, incorrect,2,1
184,2, T_Sinc, T_Sinc_URRR,346.3, hit,2,0
185,2, T_Scon, T_Scon_DRRR,381.7, hit,2,0
186,2, T_Sinc, T_Sinc_DGLG,313.2, incorrect,2,1
187,2, T_Scon, T_Scon_UGLG,384.5, hit,1,0
188,2, T_Sinc, T_Sinc_URRR,428, hit,2,0
189,2, T_Sinc, T_Sinc_DGLG,375.4, hit,1,0
190,2, T_Sinc, T_Sinc_DGLG,442.9, hit,1,0
191,2, T_Sinc, T_Sinc_URRR,398.3, hit,2,0
192,2, T_Sinc, T_Sinc_URRR,401.8, hit,2,0
193,2, T_Sinc, T_Sinc_DGLG,417.2, hit,1,0
194,2, T_Scon, T_Scon_UGLG,460.6, hit,1,0
195,2, T_Scon, T_Scon_DRRR,408, hit,2,0
196,2, T_Sinc, T_Sinc_URRR,315.5, hit,2,0
197,2, T_Scon, T_Scon_UGLG,362.9, hit,1,0
198,2, T_Scon, T_Scon_DRRR,414.3, hit,2,0
199,2, T_Sinc, T_Sinc_DGLG,645.8, hit,1,0
200,2, T_Sinc, T_Sinc_URRR,357.2, hit,2,0
201,2, T_Sinc, T_Sinc_URRR,364.7, hit,2,0
202,2, T_Sinc, T_Sinc_URRR,336.1, hit,2,0
203,2, T_Sinc, T_Sinc_URRR,327.6, hit,2,0
204,2, T_Sinc, T_Sinc_URRR,407, hit,2,0
205,2, T_Sinc, T_Sinc_DGLG,342.5, incorrect,2,1
206,2, T_Sinc, T_Sinc_DGLG,433.8, hit,1,0
207,2, T_Sinc, T_Sinc_DGLG,357.3, hit,1,0
208,2, T_Sinc, T_Sinc_DGLG,376.7, hit,1,0
209,2, T_Sinc, T_Sinc_URRR,396.2, hit,2,0
210,2, T_Sinc, T_Sinc_URRR,335.6, hit,2,0
211,2, T_Sinc, T_Sinc_DGLG,383.1, hit,1,0
212,2, T_Scon, T_Scon_UGLG,394.5, hit,1,0
213,2, T_Sinc, T_Sinc_DGLG,529.9, hit,1,0
214,2, T_Sinc, T_Sinc_URRR,381.4, hit,2,0
215,2, T_Scon, T_Scon_UGLG,472.8, hit,1,0
216,2, T_Sinc, T_Sinc_DGLG,492.2, hit,1,0
217,2, T_Scon, T_Scon_UGLG,499.5, hit,1,0
218,2, T_Sinc, T_Sinc_DGLG,326.9, hit,1,0
219,2, T_Scon, T_Scon_DRRR,514.3, hit,2,0
220,2, T_Sinc, T_Sinc_DGLG,365.8, hit,1,0
221,2, T_Sinc, T_Sinc_DGLG,373.1, hit,1,0
222,2, T_Sinc, T_Sinc_DGLG,308.6, hit,1,0
223,2, T_Scon, T_Scon_DRRR,360, hit,2,0
224,2, T_Scon, T_Scon_UGLG,327.5, hit,1,0
225,2, T_Sinc, T_Sinc_DGLG,274.9, hit,1,0
226,2, T_Sinc, T_Sinc_DGLG,362.3, hit,1,0
227,2, T_Sinc, T_Sinc_URRR,357.8, hit,2,0
228,2, T_Sinc, T_Sinc_DGLG,333.2, hit,1,0
229,2, T_Sinc, T_Sinc_URRR,400.7, hit,2,0
230,2, T_Sinc, T_Sinc_DGLG,436, hit,1,0
231,2, T_Sinc, T_Sinc_URRR,423.5, hit,2,0
232,2, T_Sinc, T_Sinc_URRR,310.9, hit,2,0
233,2, T_Sinc, T_Sinc_DGLG,334.4, hit,1,0
234,2, T_Sinc, T_Sinc_DGLG,393.8, hit,1,0
235,2, T_Sinc, T_Sinc_URRR,333.3, hit,2,0
236,2, T_Sinc, T_Sinc_URRR,352.7, hit,2,0
237,2, T_Sinc, T_Sinc_DGLG,484.2, hit,1,0
238,2, T_Sinc, T_Sinc_DGLG,379.6, hit,1,0
239,2, T_Sinc, T_Sinc_URRR,415.1, hit,2,0
240,2, T_Sinc, T_Sinc_URRR,326.5, hit,2,0
241,2, T_Sinc, T_Sinc_DGLG,409.9, hit,1,0
242,2, T_Sinc, T_Sinc_URRR,365.3, hit,2,0
243,2, T_Sinc, T_Sinc_URRR,356.8, hit,2,0
244,2, T_Sinc, T_Sinc_URRR,344.2, hit,2,0
245,2, T_Sinc, T_Sinc_DGLG,371.6, hit,1,0
246,2, T_Scon, T_Scon_DRRR,431.1, hit,2,0
247,2, T_Sinc, T_Sinc_DGLG,398.5, hit,1,0
248,2, T_Scon, T_Scon_DRRR,394, hit,2,0
249,2, T_Sinc, T_Sinc_DGLG,365.4, hit,1,0
250,2, T_Scon, T_Scon_DRRR,496.9, hit,2,0
251,2, T_Sinc, T_Sinc_URRR,456.3, hit,2,0
252,2, T_Sinc, T_Sinc_DGLG,275.8, hit,1,0
253,2, T_Scon, T_Scon_UGLG,1110.9, incorrect,2,1
254,2, T_Sinc, T_Sinc_URRR,498.3, hit,2,0
255,2, T_Sinc, T_Sinc_URRR,469.8, hit,2,0
256,2, T_Sinc, T_Sinc_URRR,369.2, hit,2,0
257,2, T_Sinc, T_Sinc_URRR,360.6, hit,2,0
258,2, T_Scon, T_Scon_UGLG,308, incorrect,2,1
259,2, T_Sinc, T_Sinc_DGLG,355.5, hit,1,0
260,2, T_Sinc, T_Sinc_DGLG,398.9, hit,1,0
261,2, T_Sinc, T_Sinc_URRR,378.4, hit,2,0
262,2, T_Sinc, T_Sinc_URRR,381.8, hit,2,0
263,2, T_Sinc, T_Sinc_DGLG,345.3, hit,1,0
264,2, T_Sinc, T_Sinc_URRR,372.7, hit,2,0
265,2, T_Scon, T_Scon_UGLG,472.2, hit,1,0
266,2, T_Sinc, T_Sinc_DGLG,339.6, hit,1,0
267,2, T_Scon, T_Scon_DRRR,639, hit,2,0
268,2, T_Sinc, T_Sinc_DGLG,358.5, hit,1,0
269,2, T_Scon, T_Scon_DRRR,377.9, hit,2,0
270,2, T_Sinc, T_Sinc_DGLG,353.3, hit,1,0
271,2, T_Sinc, T_Sinc_URRR,448.7, incorrect,1,1
272,2, T_Scon, T_Scon_DRRR,348.2, hit,2,0
273,2, T_Sinc, T_Sinc_DGLG,367.6, hit,1,0
274,2, T_Sinc, T_Sinc_URRR,379.1, hit,2,0
275,2, T_Scon, T_Scon_UGLG,526.5, hit,1,0
276,2, T_Sinc, T_Sinc_URRR,586, hit,2,0
277,2, T_Sinc, T_Sinc_DGLG,381.4, hit,1,0
278,2, T_Sinc, T_Sinc_DGLG,380.8, hit,1,0
279,2, T_Scon, T_Scon_DRRR,384.2, hit,2,0
280,2, T_Scon, T_Scon_DRRR,395.7, hit,2,0
281,2, T_Sinc, T_Sinc_DGLG,455.1, hit,1,0
282,2, T_Sinc, T_Sinc_DGLG,302.6, hit,1,0
283,2, T_Sinc, T_Sinc_DGLG,310, hit,1,0
284,2, T_Sinc, T_Sinc_URRR,397.5, hit,2,0
285,2, T_Sinc, T_Sinc_URRR,360.9, hit,2,0
286,2, T_Scon, T_Scon_DRRR,356.3, incorrect,1,1
287,2, T_Scon, T_Scon_UGLG,487.7, hit,1,0
288,2, T_Sinc, T_Sinc_DGLG,343.1, hit,1,0
289,3, T_Sinc, T_Sinc_URRR,544.4, hit,2,0
290,3, T_Sinc, T_Sinc_URRR,371.9, hit,2,0
291,3, T_Sinc, T_Sinc_URRR,391.3, hit,2,0
292,3, T_Scon, T_Scon_DRRR,406.7, hit,2,0
293,3, T_Sinc, T_Sinc_URRR,366.2, hit,2,0
294,3, T_Sinc, T_Sinc_DGLG,325.5, hit,1,0
295,3, T_Sinc, T_Sinc_DGLG,373, hit,1,0
296,3, T_Sinc, T_Sinc_DGLG,368.5, hit,1,0
297,3, T_Sinc, T_Sinc_URRR,347.9, hit,2,0
298,3, T_Sinc, T_Sinc_URRR,431.3, hit,2,0
299,3, T_Sinc, T_Sinc_DGLG,342.8, hit,1,0
300,3, T_Sinc, T_Sinc_URRR,470.2, hit,2,0
301,3, T_Sinc, T_Sinc_DGLG,445.7, hit,1,0
302,3, T_Sinc, T_Sinc_DGLG,385.1, hit,1,0
303,3, T_Sinc, T_Sinc_URRR,428.5, hit,2,0
304,3, T_Sinc, T_Sinc_URRR,367.9, hit,2,0
305,3, T_Sinc, T_Sinc_URRR,339.4, hit,2,0
306,3, T_Sinc, T_Sinc_DGLG,398.8, hit,1,0
307,3, T_Scon, T_Scon_UGLG,402.3, hit,1,0
308,3, T_Scon, T_Scon_DRRR,429.7, hit,2,0
309,3, T_Sinc, T_Sinc_URRR,369.2, hit,2,0
310,3, T_Sinc, T_Sinc_DGLG,364.6, hit,1,0
311,3, T_Sinc, T_Sinc_URRR,492.1, hit,2,0
312,3, T_Sinc, T_Sinc_URRR,475.5, hit,2,0
313,3, T_Sinc, T_Sinc_DGLG,346.9, hit,1,0
314,3, T_Sinc, T_Sinc_DGLG,378.3, hit,1,0
315,3, T_Scon, T_Scon_DRRR,445.7, hit,2,0
316,3, T_Scon, T_Scon_UGLG,417.2, hit,1,0
317,3, T_Scon, T_Scon_DRRR,372.6, hit,2,0
318,3, T_Sinc, T_Sinc_URRR,312.1, hit,2,0
319,3, T_Sinc, T_Sinc_URRR,383.5, hit,2,0
320,3, T_Sinc, T_Sinc_DGLG,495, hit,1,0
321,3, T_Sinc, T_Sinc_DGLG,354.4, hit,1,0
322,3, T_Scon, T_Scon_DRRR,385.9, hit,2,0
323,3, T_Sinc, T_Sinc_DGLG,445.3, hit,1,0
324,3, T_Scon, T_Scon_UGLG,428.7, hit,1,0
325,3, T_Scon, T_Scon_UGLG,531.9, hit,1,0
326,3, T_Sinc, T_Sinc_URRR,583.3, hit,2,0
327,3, T_Sinc, T_Sinc_DGLG,474.8, incorrect,2,1
328,3, T_Sinc, T_Sinc_DGLG,190.2, incorrect,2,1
329,3, T_Sinc, T_Sinc_URRR,381.6, hit,2,0
330,3, T_Sinc, T_Sinc_URRR,393, hit,2,0
331,3, T_Scon, T_Scon_DRRR,196.5, incorrect,1,1
332,3, T_Sinc, T_Sinc_URRR,215.9, incorrect,1,1
333,3, T_Sinc, T_Sinc_DGLG,439.3, hit,1,0
334,3, T_Sinc, T_Sinc_URRR,558.8, hit,2,0
335,3, T_Sinc, T_Sinc_DGLG,390.3, hit,1,0
336,3, T_Scon, T_Scon_UGLG,321.7, hit,1,0
337,3, T_Scon, T_Scon_UGLG,397.1, hit,1,0
338,3, T_Sinc, T_Sinc_DGLG,352.6, hit,1,0
339,3, T_Sinc, T_Sinc_DGLG,396.1, hit,1,0
340,3, T_Sinc, T_Sinc_URRR,531.5, hit,2,0
341,3, T_Sinc, T_Sinc_DGLG,466.8, hit,1,0
342,3, T_Sinc, T_Sinc_DGLG,426.3, hit,1,0
343,3, T_Sinc, T_Sinc_DGLG,373.7, hit,1,0
344,3, T_Sinc, T_Sinc_URRR,249.2, incorrect,1,1
345,3, T_Scon, T_Scon_DRRR,392.6, hit,2,0
346,3, T_Sinc, T_Sinc_URRR,344.1, hit,2,0
347,3, T_Sinc, T_Sinc_URRR,459.5, hit,2,0
348,3, T_Sinc, T_Sinc_DGLG,447, hit,1,0
349,3, T_Sinc, T_Sinc_URRR,402.4, hit,2,0
350,3, T_Sinc, T_Sinc_URRR,413.8, hit,2,0
351,3, T_Sinc, T_Sinc_DGLG,305.2, hit,1,0
352,3, T_Sinc, T_Sinc_URRR,388.7, hit,2,0
353,3, T_Sinc, T_Sinc_DGLG,408.1, hit,1,0
354,3, T_Sinc, T_Sinc_URRR,503.6, hit,2,0
355,3, T_Sinc, T_Sinc_DGLG,467, hit,1,0
356,3, T_Sinc, T_Sinc_URRR,426.5, hit,2,0
357,3, T_Sinc, T_Sinc_DGLG,373.9, hit,1,0
358,3, T_Sinc, T_Sinc_DGLG,473.4, hit,1,0
359,3, T_Sinc, T_Sinc_DGLG,372.7, hit,1,0
360,3, T_Sinc, T_Sinc_URRR,348.2, hit,2,0
361,3, T_Sinc, T_Sinc_URRR,639.4, hit,2,0
362,3, T_Scon, T_Scon_UGLG,574.8, hit,1,0
363,3, T_Sinc, T_Sinc_DGLG,514.2, hit,1,0
364,3, T_Sinc, T_Sinc_DGLG,393.6, hit,1,0
365,3, T_Sinc, T_Sinc_DGLG,405.1, hit,1,0
366,3, T_Sinc, T_Sinc_DGLG,368.5, hit,1,0
367,3, T_Scon, T_Scon_DRRR,380, hit,2,0
368,3, T_Scon, T_Scon_DRRR,391.4, hit,2,0
369,3, T_Sinc, T_Sinc_DGLG,754.9, hit,1,2
370,3, T_Sinc, T_Sinc_URRR,366.3, hit,2,0
371,3, T_Scon, T_Scon_UGLG,545.7, hit,1,0
372,3, T_Scon, T_Scon_UGLG,545.2, hit,1,0
373,3, T_Sinc, T_Sinc_URRR,476.5, hit,2,0
374,3, T_Sinc, T_Sinc_URRR,408, hit,2,0
375,3, T_Sinc, T_Sinc_URRR,483.4, hit,2,0
376,3, T_Sinc, T_Sinc_DGLG,410.9, hit,1,0
377,3, T_Scon, T_Scon_DRRR,1086.3, hit,2,2
378,3, T_Scon, T_Scon_UGLG,513.8, hit,1,0
379,3, T_Sinc, T_Sinc_URRR,353.2, hit,2,0
380,3, T_Sinc, T_Sinc_DGLG,424.7, hit,1,0
381,3, T_Sinc, T_Sinc_URRR,376.1, hit,2,0
382,3, T_Sinc, T_Sinc_URRR,667.5, hit,2,0
383,3, T_Sinc, T_Sinc_DGLG,350.9, hit,1,0
384,3, T_Scon, T_Scon_DRRR,434.4, hit,2,0
385,3, T_Sinc, T_Sinc_URRR,649.8, hit,2,0
386,3, T_Sinc, T_Sinc_DGLG,377.3, hit,1,0
387,3, T_Sinc, T_Sinc_URRR,388.7, hit,2,0
388,3, T_Scon, T_Scon_DRRR,432.2, hit,2,0
389,3, T_Sinc, T_Sinc_URRR,403.6, hit,2,0
390,3, T_Sinc, T_Sinc_URRR,363, hit,2,0
391,3, T_Sinc, T_Sinc_URRR,322.4, hit,2,0
392,3, T_Sinc, T_Sinc_URRR,373.9, hit,2,0
393,3, T_Sinc, T_Sinc_DGLG,449.3, hit,1,0
394,3, T_Sinc, T_Sinc_URRR,404.7, hit,2,0
395,3, T_Sinc, T_Sinc_DGLG,448.2, hit,1,0
396,3, T_Scon, T_Scon_DRRR,403.6, hit,2,0
397,3, T_Scon, T_Scon_DRRR,478.8, hit,2,0
398,3, T_Scon, T_Scon_UGLG,426.2, hit,1,0
399,3, T_Scon, T_Scon_UGLG,349.7, hit,1,0
400,3, T_Sinc, T_Sinc_DGLG,385.1, hit,1,0
401,3, T_Scon, T_Scon_DRRR,340.6, hit,2,0
402,3, T_Sinc, T_Sinc_URRR,332, hit,2,0
403,3, T_Scon, T_Scon_DRRR,375.5, hit,2,0
404,3, T_Sinc, T_Sinc_URRR,322.9, hit,2,0
405,3, T_Sinc, T_Sinc_DGLG,382.3, hit,1,0
406,3, T_Sinc, T_Sinc_DGLG,365.7, hit,1,0
407,3, T_Scon, T_Scon_UGLG,357.1, hit,1,0
408,3, T_Sinc, T_Sinc_DGLG,492.6, hit,1,0
409,3, T_Sinc, T_Sinc_URRR,424, hit,2,0
410,3, T_Sinc, T_Sinc_DGLG,427.5, incorrect,2,1
411,3, T_Sinc, T_Sinc_URRR,462.9, hit,2,0
412,3, T_Sinc, T_Sinc_DGLG,434.4, hit,1,0
413,3, T_Scon, T_Scon_UGLG,385.8, hit,1,0
414,3, T_Scon, T_Scon_UGLG,349.3, hit,1,0
415,3, T_Sinc, T_Sinc_DGLG,400.7, hit,1,0
416,3, T_Scon, T_Scon_UGLG,468.1, hit,1,0
417,3, T_Scon, T_Scon_DRRR,443.5, hit,2,0
418,3, T_Sinc, T_Sinc_DGLG,383, hit,1,0
419,3, T_Sinc, T_Sinc_DGLG,418.4, hit,1,0
420,3, T_Sinc, T_Sinc_DGLG,381.8, hit,1,0
421,3, T_Sinc, T_Sinc_DGLG,325.3, hit,1,0
422,3, T_Sinc, T_Sinc_DGLG,344.7, hit,1,0
423,3, T_Sinc, T_Sinc_URRR,468.2, hit,2,0
424,3, T_Sinc, T_Sinc_URRR,335.6, hit,2,0
425,3, T_Scon, T_Scon_DRRR,419, hit,2,0
426,3, T_Sinc, T_Sinc_DGLG,446.4, hit,1,0
427,3, T_Scon, T_Scon_UGLG,409.9, hit,1,0
428,3, T_Sinc, T_Sinc_URRR,433.3, hit,2,0
429,3, T_Sinc, T_Sinc_URRR,428.8, hit,2,0
430,3, T_Sinc, T_Sinc_DGLG,400.2, hit,1,0
431,3, T_Sinc, T_Sinc_URRR,331.7, hit,2,0
432,3, T_Scon, T_Scon_UGLG,479.1, hit,1,0
433,4, T_Scon, T_Scon_DRRR,509.7, hit,2,0
434,4, T_Scon, T_Scon_UGLG,409.2, hit,1,0
435,4, T_Scon, T_Scon_DRRR,328.6, hit,2,0
436,4, T_Scon, T_Scon_UGLG,412.1, hit,1,0
437,4, T_Scon, T_Scon_DRRR,419.5, hit,2,0
438,4, T_Sinc, T_Sinc_DGLG,351, hit,1,0
439,4, T_Scon, T_Scon_DRRR,398.4, hit,2,0
440,4, T_Scon, T_Scon_DRRR,341.9, hit,2,0
441,4, T_Scon, T_Scon_UGLG,337.2, hit,1,0
442,4, T_Scon, T_Scon_UGLG,380.7, hit,1,0
443,4, T_Scon, T_Scon_UGLG,352.1, hit,1,0
444,4, T_Scon, T_Scon_DRRR,351.6, hit,2,0
445,4, T_Scon, T_Scon_UGLG,323, hit,1,0
446,4, T_Scon, T_Scon_DRRR,366.5, hit,2,0
447,4, T_Scon, T_Scon_UGLG,601.9, hit,1,0
448,4, T_Scon, T_Scon_DRRR,401.4, hit,2,0
449,4, T_Scon, T_Scon_UGLG,344.7, hit,1,0
450,4, T_Sinc, T_Sinc_DGLG,384.2, hit,1,0
451,4, T_Sinc, T_Sinc_DGLG,415.6, hit,1,0
452,4, T_Scon, T_Scon_UGLG,339.1, hit,1,0
453,4, T_Scon, T_Scon_DRRR,510.5, hit,2,0
454,4, T_Scon, T_Scon_DRRR,585.9, hit,2,0
455,4, T_Scon, T_Scon_UGLG,349.4, hit,1,0
456,4, T_Scon, T_Scon_UGLG,400.8, hit,1,0
457,4, T_Scon, T_Scon_DRRR,340.3, hit,2,0
458,4, T_Scon, T_Scon_DRRR,399.7, hit,2,0
459,4, T_Scon, T_Scon_UGLG,355.2, hit,1,0
460,4, T_Scon, T_Scon_UGLG,326.6, hit,1,0
461,4, T_Scon, T_Scon_UGLG,302.1, hit,1,0
462,4, T_Scon, T_Scon_UGLG,389.5, hit,1,0
463,4, T_Scon, T_Scon_UGLG,308.9, hit,1,0
464,4, T_Sinc, T_Sinc_DGLG,384.3, hit,1,0
465,4, T_Sinc, T_Sinc_DGLG,355.8, hit,1,0
466,4, T_Scon, T_Scon_DRRR,399.2, incorrect,1,1
467,4, T_Scon, T_Scon_DRRR,366.7, hit,2,0
468,4, T_Scon, T_Scon_DRRR,410.1, hit,2,0
469,4, T_Sinc, T_Sinc_DGLG,425.3, hit,1,0
470,4, T_Scon, T_Scon_UGLG,324.7, hit,1,0
471,4, T_Scon, T_Scon_UGLG,304.1, hit,1,0
472,4, T_Scon, T_Scon_DRRR,339.6, hit,2,0
473,4, T_Scon, T_Scon_DRRR,319, incorrect,1,1
474,4, T_Scon, T_Scon_UGLG,298.5, incorrect,2,1
475,4, T_Scon, T_Scon_DRRR,429.8, hit,2,0
476,4, T_Scon, T_Scon_DRRR,313.3, hit,2,0
477,4, T_Scon, T_Scon_UGLG,372.7, incorrect,2,1
478,4, T_Scon, T_Scon_DRRR,388.2, hit,2,0
479,4, T_Scon, T_Scon_DRRR,399.6, hit,2,0
480,4, T_Scon, T_Scon_UGLG,347, hit,1,0
481,4, T_Scon, T_Scon_DRRR,334.5, hit,2,0
482,4, T_Scon, T_Scon_UGLG,401.9, hit,1,0
483,4, T_Sinc, T_Sinc_URRR,517.4, hit,2,0
484,4, T_Scon, T_Scon_UGLG,416.8, hit,1,0
485,4, T_Scon, T_Scon_DRRR,404.3, hit,2,0
486,4, T_Sinc, T_Sinc_URRR,423.7, hit,2,0
487,4, T_Scon, T_Scon_UGLG,395.2, hit,1,0
488,4, T_Scon, T_Scon_UGLG,1054.5, hit,1,2
489,4, T_Scon, T_Scon_UGLG,398, hit,1,0
490,4, T_Scon, T_Scon_DRRR,573.4, hit,2,0
491,4, T_Scon, T_Scon_DRRR,496.9, hit,2,0
492,4, T_Sinc, T_Sinc_DGLG,360.3, hit,1,0
493,4, T_Sinc, T_Sinc_DGLG,367.8, hit,1,0
494,4, T_Scon, T_Scon_UGLG,411.2, hit,1,0
495,4, T_Scon, T_Scon_UGLG,374.7, hit,1,0
496,4, T_Sinc, T_Sinc_DGLG,450.1, hit,1,0
497,4, T_Scon, T_Scon_UGLG,365.5, hit,1,0
498,4, T_Scon, T_Scon_DRRR,357, hit,2,0
499,4, T_Scon, T_Scon_DRRR,352.5, hit,2,0
500,4, T_Sinc, T_Sinc_URRR,395.8, hit,2,0
501,4, T_Sinc, T_Sinc_DGLG,491.2, hit,1,0
502,4, T_Sinc, T_Sinc_URRR,378.7, hit,2,0
503,4, T_Scon, T_Scon_DRRR,390.1, hit,2,0
504,4, T_Scon, T_Scon_UGLG,393.6, hit,1,0
505,4, T_Sinc, T_Sinc_DGLG,508.7, hit,1,0
506,4, T_Scon, T_Scon_UGLG,400.2, hit,1,0
507,4, T_Sinc, T_Sinc_DGLG,395.6, hit,1,0
508,4, T_Sinc, T_Sinc_URRR,439.1, hit,2,0
509,4, T_Scon, T_Scon_DRRR,386.4, hit,2,0
510,4, T_Scon, T_Scon_DRRR,585.8, hit,2,0
511,4, T_Sinc, T_Sinc_URRR,293.3, hit,2,0
512,4, T_Scon, T_Scon_DRRR,356.7, hit,2,0
513,4, T_Scon, T_Scon_UGLG,464.2, hit,1,0
514,4, T_Scon, T_Scon_UGLG,395.6, hit,1,0
515,4, T_Sinc, T_Sinc_DGLG,335.1, hit,1,0
516,4, T_Sinc, T_Sinc_URRR,394.5, hit,2,0
517,4, T_Scon, T_Scon_UGLG,422, hit,1,0
518,4, T_Scon, T_Scon_UGLG,425.4, hit,1,0
519,4, T_Scon, T_Scon_DRRR,420.9, hit,2,0
520,4, T_Scon, T_Scon_UGLG,312.3, hit,1,0
521,4, T_Scon, T_Scon_UGLG,367.8, hit,1,0
522,4, T_Scon, T_Scon_DRRR,443.2, hit,2,0
523,4, T_Scon, T_Scon_UGLG,278.6, hit,1,0
524,4, T_Scon, T_Scon_UGLG,414, hit,1,0
525,4, T_Scon, T_Scon_UGLG,345.4, hit,1,0
526,4, T_Sinc, T_Sinc_DGLG,424.9, hit,1,0
527,4, T_Scon, T_Scon_UGLG,368.3, hit,1,0
528,4, T_Sinc, T_Sinc_URRR,391.8, hit,2,0
529,4, T_Scon, T_Scon_DRRR,387.3, hit,2,0
530,4, T_Scon, T_Scon_UGLG,386.7, hit,1,0
531,4, T_Sinc, T_Sinc_URRR,446.1, hit,2,0
532,4, T_Scon, T_Scon_DRRR,405.6, hit,2,0
533,4, T_Scon, T_Scon_UGLG,436.9, hit,1,0
534,4, T_Scon, T_Scon_UGLG,408.4, hit,1,0
535,4, T_Sinc, T_Sinc_URRR,431.8, hit,2,0
536,4, T_Sinc, T_Sinc_URRR,371.3, hit,2,0
537,4, T_Scon, T_Scon_UGLG,398.7, hit,1,0
538,4, T_Scon, T_Scon_DRRR,410.2, hit,2,0
539,4, T_Scon, T_Scon_DRRR,373.6, hit,2,0
540,4, T_Scon, T_Scon_DRRR,353, hit,2,0
541,4, T_Scon, T_Scon_DRRR,440.2, hit,2,0
542,4, T_Scon, T_Scon_UGLG,387.6, incorrect,2,1
543,4, T_Sinc, T_Sinc_DGLG,347.1, hit,1,0
544,4, T_Scon, T_Scon_DRRR,318.5, hit,2,0
545,4, T_Scon, T_Scon_DRRR,294, hit,2,0
546,4, T_Scon, T_Scon_UGLG,429.4, hit,1,0
547,4, T_Sinc, T_Sinc_URRR,368.8, hit,2,0
548,4, T_Sinc, T_Sinc_URRR,352.2, hit,2,0
549,4, T_Scon, T_Scon_DRRR,379.7, hit,2,0
550,4, T_Sinc, T_Sinc_URRR,251.1, hit,2,0
551,4, T_Scon, T_Scon_DRRR,398.6, hit,2,0
552,4, T_Scon, T_Scon_DRRR,362, hit,2,0
553,4, T_Sinc, T_Sinc_URRR,325.5, hit,2,0
554,4, T_Sinc, T_Sinc_URRR,336.9, hit,2,0
555,4, T_Scon, T_Scon_DRRR,328.4, hit,2,0
556,4, T_Scon, T_Scon_DRRR,319.8, hit,2,0
557,4, T_Scon, T_Scon_DRRR,307.1, hit,2,0
558,4, T_Scon, T_Scon_UGLG,462.6, hit,1,0
559,4, T_Scon, T_Scon_UGLG,326, hit,1,0
560,4, T_Sinc, T_Sinc_DGLG,365.5, hit,1,0
561,4, T_Scon, T_Scon_UGLG,360.9, hit,1,0
562,4, T_Scon, T_Scon_DRRR,400.4, hit,2,0
563,4, T_Sinc, T_Sinc_DGLG,367.8, incorrect,2,1
564,4, T_Scon, T_Scon_DRRR,323.2, hit,2,0
565,4, T_Scon, T_Scon_DRRR,422.6, hit,2,0
566,4, T_Scon, T_Scon_DRRR,386.1, hit,2,0
567,4, T_Scon, T_Scon_DRRR,353.5, hit,2,0
568,4, T_Sinc, T_Sinc_URRR,357, hit,2,0
569,4, T_Scon, T_Scon_UGLG,368.4, hit,1,0
570,4, T_Scon, T_Scon_UGLG,411.9, hit,1,0
571,4, T_Scon, T_Scon_DRRR,371.3, hit,2,0
572,4, T_Scon, T_Scon_UGLG,318.8, hit,1,0
573,4, T_Sinc, T_Sinc_DGLG,378.1, hit,1,0
574,4, T_Scon, T_Scon_DRRR,337.6, hit,2,0
575,4, T_Sinc, T_Sinc_URRR,317, incorrect,1,1
576,4, T_Scon, T_Scon_UGLG,308.4, hit,1,0
577,5, T_Scon, T_Scon_DRRR,773.1, hit,2,2
578,5, T_Sinc, T_Sinc_URRR,328.5, hit,2,0
579,5, T_Scon, T_Scon_UGLG,308, incorrect,2,1
580,5, T_Scon, T_Scon_UGLG,391.4, hit,1,0
581,5, T_Scon, T_Scon_UGLG,362.8, hit,1,0
582,5, T_Scon, T_Scon_DRRR,350.3, hit,2,0
583,5, T_Scon, T_Scon_UGLG,409.7, hit,1,0
584,5, T_Scon, T_Scon_UGLG,329.2, hit,1,0
585,5, T_Sinc, T_Sinc_URRR,484.6, hit,2,0
586,5, T_Scon, T_Scon_DRRR,356.1, incorrect,1,1
587,5, T_Scon, T_Scon_UGLG,339.5, hit,1,0
588,5, T_Scon, T_Scon_UGLG,350.9, hit,1,0
589,5, T_Scon, T_Scon_DRRR,310.3, hit,2,0
590,5, T_Sinc, T_Sinc_DGLG,385.7, hit,1,0
591,5, T_Sinc, T_Sinc_URRR,413.2, hit,2,0
592,5, T_Sinc, T_Sinc_DGLG,340.6, hit,1,0
593,5, T_Sinc, T_Sinc_DGLG,292.1, hit,1,0
594,5, T_Sinc, T_Sinc_DGLG,303.5, hit,1,0
595,5, T_Sinc, T_Sinc_DGLG,419, hit,1,0
596,5, T_Scon, T_Scon_DRRR,450.4, hit,2,0
597,5, T_Scon, T_Scon_UGLG,413.9, hit,1,0
598,5, T_Scon, T_Scon_DRRR,497.3, hit,2,0
599,5, T_Scon, T_Scon_DRRR,372.8, hit,2,0
600,5, T_Scon, T_Scon_DRRR,364.2, hit,2,0
601,5, T_Scon, T_Scon_DRRR,355.6, hit,2,0
602,5, T_Scon, T_Scon_DRRR,383, hit,2,0
603,5, T_Scon, T_Scon_UGLG,434.4, hit,1,0
604,5, T_Scon, T_Scon_DRRR,365.9, hit,2,0
605,5, T_Scon, T_Scon_UGLG,393.3, hit,1,0
606,5, T_Scon, T_Scon_UGLG,380.8, hit,1,0
607,5, T_Sinc, T_Sinc_DGLG,372.2, hit,1,0
608,5, T_Scon, T_Scon_UGLG,415.7, hit,1,0
609,5, T_Scon, T_Scon_DRRR,383.1, hit,2,0
610,5, T_Scon, T_Scon_UGLG,370.6, hit,1,0
611,5, T_Sinc, T_Sinc_DGLG,378, hit,1,0
612,5, T_Scon, T_Scon_DRRR,405.5, hit,2,0
613,5, T_Scon, T_Scon_UGLG,456.6, hit,1,0
614,5, T_Scon, T_Scon_DRRR,420, hit,2,0
615,5, T_Scon, T_Scon_UGLG,495.5, hit,1,0
616,5, T_Scon, T_Scon_DRRR,458.9, hit,2,0
617,5, T_Scon, T_Scon_DRRR,302.3, hit,2,0
618,5, T_Scon, T_Scon_UGLG,421.7, hit,1,0
619,5, T_Scon, T_Scon_DRRR,329.2, hit,2,0
620,5, T_Scon, T_Scon_DRRR,396.6, hit,2,0
621,5, T_Sinc, T_Sinc_URRR,368.1, hit,2,0
622,5, T_Scon, T_Scon_UGLG,379.5, hit,1,0
623,5, T_Scon, T_Scon_UGLG,367, hit,1,0
624,5, T_Scon, T_Scon_DRRR,370.4, hit,2,0
625,5, T_Scon, T_Scon_DRRR,353.9, hit,2,0
626,5, T_Sinc, T_Sinc_URRR,349.3, hit,2,0
627,5, T_Sinc, T_Sinc_URRR,352.8, hit,2,0
628,5, T_Scon, T_Scon_UGLG,424.2, hit,1,0
629,5, T_Scon, T_Scon_UGLG,419.6, hit,1,0
630,5, T_Scon, T_Scon_DRRR,427, hit,2,0
631,5, T_Scon, T_Scon_DRRR,566.4, hit,2,0
632,5, T_Scon, T_Scon_UGLG,481.9, hit,1,0
633,5, T_Scon, T_Scon_DRRR,453.3, hit,2,0
634,5, T_Sinc, T_Sinc_DGLG,504.8, hit,1,0
635,5, T_Scon, T_Scon_DRRR,432.2, hit,2,0
636,5, T_Sinc, T_Sinc_URRR,403.6, hit,2,0
637,5, T_Scon, T_Scon_DRRR,359, hit,2,0
638,5, T_Scon, T_Scon_DRRR,386.5, hit,2,0
639,5, T_Scon, T_Scon_UGLG,349.9, hit,1,0
640,5, T_Scon, T_Scon_UGLG,337.4, hit,1,0
641,5, T_Sinc, T_Sinc_URRR,372.8, hit,2,0
642,5, T_Scon, T_Scon_DRRR,364.3, hit,2,0
643,5, T_Sinc, T_Sinc_DGLG,379.7, hit,1,0
644,5, T_Scon, T_Scon_DRRR,375.1, hit,2,0
645,5, T_Scon, T_Scon_UGLG,626.5, hit,1,0
646,5, T_Scon, T_Scon_DRRR,366, hit,2,0
647,5, T_Scon, T_Scon_DRRR,617.4, hit,2,0
648,5, T_Sinc, T_Sinc_URRR,348.9, hit,2,0
649,5, T_Scon, T_Scon_DRRR,460, hit,2,0
650,5, T_Sinc, T_Sinc_DGLG,411.4, hit,1,0
651,5, T_Sinc, T_Sinc_URRR,366.9, hit,2,0
652,5, T_Scon, T_Scon_UGLG,386.3, hit,1,0
653,5, T_Scon, T_Scon_UGLG,525.8, hit,1,0
654,5, T_Scon, T_Scon_UGLG,345.2, hit,1,0
655,5, T_Scon, T_Scon_UGLG,292.7, hit,1,0
656,5, T_Scon, T_Scon_DRRR,412.1, hit,2,0
657,5, T_Sinc, T_Sinc_URRR,399.6, hit,2,0
658,5, T_Sinc, T_Sinc_DGLG,363, hit,1,0
659,5, T_Scon, T_Scon_UGLG,402.4, hit,1,0
660,5, T_Scon, T_Scon_DRRR,741.8, hit,2,2
661,5, T_Scon, T_Scon_DRRR,465.3, hit,2,0
662,5, T_Scon, T_Scon_DRRR,372.7, hit,2,0
663,5, T_Sinc, T_Sinc_DGLG,376.2, hit,1,0
664,5, T_Sinc, T_Sinc_DGLG,327.6, hit,1,0
665,5, T_Scon, T_Scon_UGLG,403.1, hit,1,0
666,5, T_Scon, T_Scon_UGLG,350.4, hit,1,0
667,5, T_Scon, T_Scon_DRRR,393.9, hit,2,0
668,5, T_Sinc, T_Sinc_URRR,389.3, hit,2,0
669,5, T_Scon, T_Scon_DRRR,392.8, hit,2,0
670,5, T_Scon, T_Scon_UGLG,436.2, hit,1,0
671,5, T_Scon, T_Scon_UGLG,323.6, hit,1,0
672,5, T_Scon, T_Scon_DRRR,403.1, hit,2,0
673,5, T_Scon, T_Scon_UGLG,482.5, hit,1,0
674,5, T_Sinc, T_Sinc_URRR,554, hit,2,0
675,5, T_Scon, T_Scon_UGLG,405.3, hit,1,0
676,5, T_Sinc, T_Sinc_URRR,436.8, hit,2,0
677,5, T_Scon, T_Scon_DRRR,384.2, hit,2,0
678,5, T_Scon, T_Scon_UGLG,307.7, hit,1,0
679,5, T_Scon, T_Scon_DRRR,407.1, hit,2,0
680,5, T_Scon, T_Scon_UGLG,434.6, hit,1,0
681,5, T_Sinc, T_Sinc_DGLG,390, hit,1,0
682,5, T_Scon, T_Scon_DRRR,341.4, hit,2,0
683,5, T_Scon, T_Scon_UGLG,356.8, hit,1,0
684,5, T_Scon, T_Scon_UGLG,300.3, hit,1,0
685,5, T_Sinc, T_Sinc_DGLG,519.5, hit,1,0
686,5, T_Scon, T_Scon_DRRR,478.9, hit,2,0
687,5, T_Scon, T_Scon_DRRR,466.3, hit,2,0
688,5, T_Scon, T_Scon_DRRR,421.7, hit,2,0
689,5, T_Scon, T_Scon_DRRR,357.2, hit,2,0
690,5, T_Scon, T_Scon_UGLG,424.6, hit,1,0
691,5, T_Scon, T_Scon_UGLG,384.1, hit,1,0
692,5, T_Scon, T_Scon_UGLG,259.5, hit,1,0
693,5, T_Scon, T_Scon_UGLG,275, hit,1,0
694,5, T_Scon, T_Scon_UGLG,290.4, hit,1,0
695,5, T_Scon, T_Scon_DRRR,389.8, hit,2,0
696,5, T_Sinc, T_Sinc_URRR,297.3, hit,2,0
697,5, T_Sinc, T_Sinc_DGLG,364.8, hit,1,0
698,5, T_Sinc, T_Sinc_URRR,304.2, hit,2,0
699,5, T_Scon, T_Scon_UGLG,351.6, hit,1,0
700,5, T_Scon, T_Scon_DRRR,363, hit,2,0
701,5, T_Scon, T_Scon_UGLG,378.4, hit,1,0
702,5, T_Scon, T_Scon_UGLG,365.9, hit,1,0
703,5, T_Scon, T_Scon_DRRR,397.3, hit,2,0
704,5, T_Scon, T_Scon_DRRR,396.8, hit,2,0
705,5, T_Scon, T_Scon_DRRR,456.2, hit,2,0
706,5, T_Scon, T_Scon_UGLG,355.7, hit,1,0
707,5, T_Scon, T_Scon_DRRR,483.1, hit,2,0
708,5, T_Sinc, T_Sinc_DGLG,322.5, hit,1,0
709,5, T_Scon, T_Scon_DRRR,385.9, hit,2,0
710,5, T_Sinc, T_Sinc_URRR,381.4, hit,2,0
711,5, T_Sinc, T_Sinc_URRR,304.8, hit,2,0
712,5, T_Scon, T_Scon_UGLG,392.3, hit,1,0
713,5, T_Scon, T_Scon_UGLG,267.7, hit,1,0
714,5, T_Sinc, T_Sinc_DGLG,423.2, hit,1,0
715,5, T_Scon, T_Scon_UGLG,330.6, hit,1,0
716,5, T_Scon, T_Scon_DRRR,406.1, hit,2,0
717,5, T_Scon, T_Scon_UGLG,385.4, hit,1,0
718,5, T_Scon, T_Scon_UGLG,284.9, hit,1,0
719,5, T_Scon, T_Scon_DRRR,404.3, hit,2,0
720,5, T_Scon, T_Scon_UGLG,359.7, hit,1,0
721,6, T_Scon, T_Scon_DRRR,496.1, hit,2,0
722,6, T_Scon, T_Scon_UGLG,403.5, hit,1,0
723,6, T_Scon, T_Scon_UGLG,355, hit,1,0
724,6, T_Scon, T_Scon_DRRR,526.4, hit,2,0
725,6, T_Scon, T_Scon_DRRR,389.8, hit,2,0
726,6, T_Sinc, T_Sinc_URRR,429.3, hit,2,0
727,6, T_Scon, T_Scon_UGLG,424.7, hit,1,0
728,6, T_Scon, T_Scon_DRRR,576.2, hit,2,0
729,6, T_Scon, T_Scon_DRRR,383.5, hit,2,0
730,6, T_Sinc, T_Sinc_DGLG,399, hit,1,0
731,6, T_Sinc, T_Sinc_URRR,542.4, hit,2,0
732,6, T_Scon, T_Scon_UGLG,453.9, hit,1,0
733,6, T_Scon, T_Scon_DRRR,465.3, hit,2,0
734,6, T_Scon, T_Scon_DRRR,408.8, hit,2,0
735,6, T_Scon, T_Scon_UGLG,404.2, hit,1,0
736,6, T_Scon, T_Scon_DRRR,415.7, hit,2,0
737,6, T_Sinc, T_Sinc_URRR,347.1, hit,2,0
738,6, T_Scon, T_Scon_UGLG,374.5, hit,1,0
739,6, T_Scon, T_Scon_DRRR,401.9, hit,2,0
740,6, T_Scon, T_Scon_DRRR,381.4, hit,2,0
741,6, T_Scon, T_Scon_DRRR,344.8, hit,2,0
742,6, T_Sinc, T_Sinc_DGLG,392.2, hit,1,0
743,6, T_Scon, T_Scon_UGLG,347.7, hit,1,0
744,6, T_Scon, T_Scon_DRRR,639.1, hit,2,0
745,6, T_Sinc, T_Sinc_DGLG,402.6, hit,1,0
746,6, T_Sinc, T_Sinc_DGLG,354.1, hit,1,0
747,6, T_Sinc, T_Sinc_URRR,385.4, hit,2,0
748,6, T_Scon, T_Scon_DRRR,332.9, hit,2,0
749,6, T_Sinc, T_Sinc_URRR,392.3, hit,2,0
750,6, T_Sinc, T_Sinc_URRR,347.7, hit,2,0
751,6, T_Scon, T_Scon_UGLG,415.2, hit,1,0
752,6, T_Scon, T_Scon_UGLG,298.6, hit,1,0
753,6, T_Scon, T_Scon_DRRR,414.1, hit,2,0
754,6, T_Scon, T_Scon_UGLG,385.5, hit,1,0
755,6, T_Sinc, T_Sinc_DGLG,348.9, hit,1,0
756,6, T_Scon, T_Scon_UGLG,384.4, hit,1,0
757,6, T_Scon, T_Scon_UGLG,487.6, hit,1,0
758,6, T_Scon, T_Scon_DRRR,419, hit,2,0
759,6, T_Sinc, T_Sinc_DGLG,614.4, hit,1,0
760,6, T_Scon, T_Scon_UGLG,313.9, hit,1,0
761,6, T_Scon, T_Scon_UGLG,301.3, hit,1,0
762,6, T_Scon, T_Scon_UGLG,380.8, hit,1,0
763,6, T_Scon, T_Scon_DRRR,448.2, hit,2,0
764,6, T_Scon, T_Scon_DRRR,463.6, hit,2,0
765,6, T_Scon, T_Scon_DRRR,371, hit,2,0
766,6, T_Scon, T_Scon_DRRR,334.5, hit,2,0
767,6, T_Scon, T_Scon_UGLG,501.9, hit,1,0
768,6, T_Sinc, T_Sinc_URRR,425.4, hit,2,0
769,6, T_Scon, T_Scon_UGLG,420.8, hit,1,0
770,6, T_Sinc, T_Sinc_DGLG,356.3, hit,1,0
771,6, T_Sinc, T_Sinc_DGLG,415.7, hit,1,0
772,6, T_Scon, T_Scon_UGLG,315.1, hit,1,0
773,6, T_Scon, T_Scon_UGLG,342.6, hit,1,0
774,6, T_Scon, T_Scon_UGLG,330, hit,1,0
775,6, T_Scon, T_Scon_UGLG,413.5, hit,1,0
776,6, T_Scon, T_Scon_UGLG,272.8, hit,1,0
777,6, T_Sinc, T_Sinc_URRR,392.3, hit,2,0
778,6, T_Scon, T_Scon_DRRR,391.7, hit,2,0
779,6, T_Scon, T_Scon_UGLG,363.2, hit,1,0
780,6, T_Scon, T_Scon_UGLG,438.6, incorrect,2,1
781,6, T_Scon, T_Scon_DRRR,434.1, hit,2,0
782,6, T_Sinc, T_Sinc_DGLG,421.5, hit,1,0
783,6, T_Scon, T_Scon_DRRR,389, hit,2,0
784,6, T_Scon, T_Scon_UGLG,456.4, hit,1,0
785,6, T_Scon, T_Scon_UGLG,375.8, hit,1,0
786,6, T_Sinc, T_Sinc_DGLG,495.2, hit,1,0
787,6, T_Scon, T_Scon_DRRR,450.7, hit,2,0
788,6, T_Scon, T_Scon_DRRR,442.1, hit,2,0
789,6, T_Scon, T_Scon_DRRR,405.5, hit,2,0
790,6, T_Scon, T_Scon_DRRR,417, hit,2,0
791,6, T_Scon, T_Scon_UGLG,448.4, hit,1,0
792,6, T_Scon, T_Scon_DRRR,507.9, hit,2,0
793,6, T_Scon, T_Scon_DRRR,695.1, hit,2,2
794,6, T_Sinc, T_Sinc_URRR,354.5, hit,2,0
795,6, T_Sinc, T_Sinc_URRR,253.9, hit,2,0
796,6, T_Scon, T_Scon_DRRR,305.3, hit,2,0
797,6, T_Scon, T_Scon_UGLG,356.8, hit,1,0
798,6, T_Sinc, T_Sinc_URRR,376.2, hit,2,0
799,6, T_Sinc, T_Sinc_DGLG,523.7, hit,1,0
800,6, T_Scon, T_Scon_DRRR,519.1, hit,2,0
801,6, T_Scon, T_Scon_UGLG,434.5, hit,1,0
802,6, T_Scon, T_Scon_UGLG,405.9, hit,1,0
803,6, T_Scon, T_Scon_DRRR,337.4, hit,2,0
804,6, T_Sinc, T_Sinc_URRR,368.8, hit,2,0
805,6, T_Sinc, T_Sinc_URRR,348.3, hit,2,0
806,6, T_Scon, T_Scon_UGLG,415.7, hit,1,0
807,6, T_Scon, T_Scon_DRRR,391.2, hit,2,0
808,6, T_Scon, T_Scon_UGLG,410.6, hit,1,0
809,6, T_Scon, T_Scon_UGLG,378.1, hit,1,0
810,6, T_Sinc, T_Sinc_URRR,353.5, hit,2,0
811,6, T_Scon, T_Scon_UGLG,408.9, hit,1,0
812,6, T_Sinc, T_Sinc_DGLG,360.4, incorrect,2,1
813,6, T_Sinc, T_Sinc_URRR,395.8, hit,2,0
814,6, T_Scon, T_Scon_DRRR,395.2, hit,2,0
815,6, T_Scon, T_Scon_DRRR,310.6, hit,2,0
816,6, T_Scon, T_Scon_UGLG,426.1, hit,1,0
817,6, T_Scon, T_Scon_DRRR,349.5, hit,2,0
818,6, T_Scon, T_Scon_DRRR,341, hit,2,0
819,6, T_Sinc, T_Sinc_DGLG,496.4, hit,1,0
820,6, T_Scon, T_Scon_UGLG,315.9, hit,1,0
821,6, T_Sinc, T_Sinc_DGLG,483.3, hit,1,0
822,6, T_Sinc, T_Sinc_DGLG,354.8, hit,1,0
823,6, T_Scon, T_Scon_UGLG,398.1, hit,1,0
824,6, T_Scon, T_Scon_UGLG,321.6, hit,1,0
825,6, T_Scon, T_Scon_UGLG,365, hit,1,0
826,6, T_Scon, T_Scon_DRRR,440.5, hit,2,0
827,6, T_Scon, T_Scon_DRRR,403.9, hit,2,0
828,6, T_Scon, T_Scon_UGLG,575.4, hit,1,0
829,6, T_Scon, T_Scon_DRRR,426.5, hit,2,0
830,6, T_Scon, T_Scon_UGLG,369.9, hit,1,0
831,6, T_Scon, T_Scon_DRRR,341.4, hit,2,0
832,6, T_Scon, T_Scon_DRRR,416.8, hit,2,0
833,6, T_Scon, T_Scon_DRRR,416.3, hit,2,0
834,6, T_Sinc, T_Sinc_DGLG,419.6, hit,1,0
835,6, T_Scon, T_Scon_UGLG,411.1, hit,1,0
836,6, T_Scon, T_Scon_DRRR,318.5, hit,2,0
837,6, T_Scon, T_Scon_DRRR,298, hit,2,0
838,6, T_Scon, T_Scon_UGLG,341.5, hit,1,0
839,6, T_Scon, T_Scon_DRRR,408.9, hit,2,0
840,6, T_Scon, T_Scon_UGLG,388.3, hit,1,0
841,6, T_Scon, T_Scon_UGLG,303.8, hit,1,0
842,6, T_Scon, T_Scon_UGLG,347.1, hit,1,0
843,6, T_Scon, T_Scon_DRRR,346.6, hit,2,0
844,6, T_Scon, T_Scon_UGLG,346, hit,1,0
845,6, T_Scon, T_Scon_UGLG,301.5, hit,1,0
846,6, T_Sinc, T_Sinc_URRR,388.9, hit,2,0
847,6, T_Scon, T_Scon_UGLG,376.4, hit,1,0
848,6, T_Scon, T_Scon_UGLG,355.8, hit,1,0
849,6, T_Scon, T_Scon_DRRR,355.3, hit,2,0
850,6, T_Scon, T_Scon_UGLG,370.7, hit,1,0
851,6, T_Sinc, T_Sinc_DGLG,438, hit,1,0
852,6, T_Scon, T_Scon_DRRR,449.5, hit,2,0
853,6, T_Scon, T_Scon_DRRR,392.9, hit,2,0
854,6, T_Scon, T_Scon_DRRR,364.4, hit,2,0
855,6, T_Sinc, T_Sinc_URRR,451.8, hit,2,0
856,6, T_Scon, T_Scon_UGLG,407.3, hit,1,0
857,6, T_Sinc, T_Sinc_DGLG,426.7, hit,1,0
858,6, T_Scon, T_Scon_UGLG,398.2, hit,1,0
859,6, T_Scon, T_Scon_UGLG,413.6, hit,1,0
860,6, T_Scon, T_Scon_DRRR,433.1, hit,2,0
861,6, T_Sinc, T_Sinc_URRR,372.5, hit,2,0
862,6, T_Scon, T_Scon_DRRR,355.9, hit,2,0
863,6, T_Scon, T_Scon_DRRR,355.3, hit,2,0
864,6, T_Scon, T_Scon_DRRR,326.7, hit,2,0
865,7, T_Sinc, T_Sinc_DGLG,409.9, hit,1,0
866,7, T_Sinc, T_Sinc_DGLG,369.3, hit,1,0
867,7, T_Sinc, T_Sinc_URRR,428.8, hit,2,0
868,7, T_Sinc, T_Sinc_URRR,284.2, hit,2,0
869,7, T_Sinc, T_Sinc_URRR,363.6, incorrect,1,1
870,7, T_Scon, T_Scon_UGLG,383.1, incorrect,2,1
871,7, T_Sinc, T_Sinc_URRR,258.5, hit,2,0
872,7, T_Sinc, T_Sinc_DGLG,446, hit,1,0
873,7, T_Sinc, T_Sinc_DGLG,369.4, hit,1,0
874,7, T_Sinc, T_Sinc_URRR,372.8, hit,2,0
875,7, T_Sinc, T_Sinc_DGLG,436.2, hit,1,0
876,7, T_Sinc, T_Sinc_DGLG,375.7, hit,1,0
877,7, T_Sinc, T_Sinc_DGLG,331.1, hit,1,0
878,7, T_Sinc, T_Sinc_DGLG,306.6, hit,1,0
879,7, T_Scon, T_Scon_UGLG,338, hit,1,0
880,7, T_Sinc, T_Sinc_DGLG,405.4, hit,1,0
881,7, T_Scon, T_Scon_DRRR,384.9, hit,2,0
882,7, T_Sinc, T_Sinc_URRR,452.3, hit,2,0
883,7, T_Scon, T_Scon_DRRR,339.8, hit,2,0
884,7, T_Sinc, T_Sinc_URRR,283.1, hit,2,0
885,7, T_Sinc, T_Sinc_URRR,278.6, hit,2,0
886,7, T_Sinc, T_Sinc_DGLG,402, hit,1,0
887,7, T_Sinc, T_Sinc_URRR,453.4, hit,2,0
888,7, T_Sinc, T_Sinc_URRR,416.9, hit,2,0
889,7, T_Scon, T_Scon_DRRR,380.4, hit,2,0
890,7, T_Sinc, T_Sinc_DGLG,419.8, hit,1,0
891,7, T_Scon, T_Scon_DRRR,535.3, hit,2,0
892,7, T_Sinc, T_Sinc_DGLG,410.7, hit,1,0
893,7, T_Scon, T_Scon_DRRR,526.2, hit,2,0
894,7, T_Sinc, T_Sinc_DGLG,413.5, hit,1,0
895,7, T_Scon, T_Scon_UGLG,345, hit,1,0
896,7, T_Sinc, T_Sinc_DGLG,392.4, hit,1,0
897,7, T_Sinc, T_Sinc_DGLG,419.8, hit,1,0
898,7, T_Scon, T_Scon_UGLG,399.3, hit,1,0
899,7, T_Sinc, T_Sinc_DGLG,390.7, hit,1,0
900,7, T_Scon, T_Scon_UGLG,394.2, hit,1,0
901,7, T_Sinc, T_Sinc_URRR,441.4, hit,2,0
902,7, T_Sinc, T_Sinc_URRR,316.8, hit,2,0
903,7, T_Sinc, T_Sinc_URRR,272.2, hit,2,0
904,7, T_Scon, T_Scon_DRRR,335.7, hit,2,0
905,7, T_Sinc, T_Sinc_URRR,251.1, hit,2,0
906,7, T_Sinc, T_Sinc_DGLG,386.6, hit,1,0
907,7, T_Scon, T_Scon_DRRR,490, hit,2,0
908,7, T_Sinc, T_Sinc_URRR,285.3, hit,2,0
909,7, T_Sinc, T_Sinc_URRR,268.8, hit,2,0
910,7, T_Sinc, T_Sinc_URRR,256.3, hit,2,0
911,7, T_Sinc, T_Sinc_URRR,283.7, hit,2,0
912,7, T_Scon, T_Scon_DRRR,335.1, hit,2,0
913,7, T_Sinc, T_Sinc_DGLG,410.6, hit,1,0
914,7, T_Sinc, T_Sinc_URRR,370, hit,2,0
915,7, T_Sinc, T_Sinc_URRR,317.5, hit,2,0
916,7, T_Sinc, T_Sinc_DGLG,392.9, hit,1,0
917,7, T_Sinc, T_Sinc_URRR,428.4, hit,2,0
918,7, T_Sinc, T_Sinc_URRR,367.8, hit,2,0
919,7, T_Sinc, T_Sinc_URRR,307.3, hit,2,0
920,7, T_Sinc, T_Sinc_DGLG,418.6, hit,1,0
921,7, T_Sinc, T_Sinc_DGLG,446.1, hit,1,0
922,7, T_Sinc, T_Sinc_URRR,401.5, hit,2,0
923,7, T_Sinc, T_Sinc_URRR,357, hit,2,0
924,7, T_Sinc, T_Sinc_DGLG,488.4, hit,1,0
925,7, T_Sinc, T_Sinc_DGLG,423.8, hit,1,0
926,7, T_Sinc, T_Sinc_DGLG,339.3, hit,1,0
927,7, T_Scon, T_Scon_UGLG,374.7, incorrect,2,1
928,7, T_Sinc, T_Sinc_DGLG,362.2, hit,1,0
929,7, T_Sinc, T_Sinc_DGLG,357.6, hit,1,0
930,7, T_Sinc, T_Sinc_URRR,393, hit,2,0
931,7, T_Sinc, T_Sinc_DGLG,376.4, hit,1,0
932,7, T_Sinc, T_Sinc_DGLG,395.9, hit,1,0
933,7, T_Sinc, T_Sinc_DGLG,379.3, hit,1,0
934,7, T_Sinc, T_Sinc_URRR,370.8, hit,2,0
935,7, T_Scon, T_Scon_UGLG,350.2, hit,1,0
936,7, T_Sinc, T_Sinc_DGLG,337.7, hit,1,0
937,7, T_Scon, T_Scon_DRRR,380.9, hit,2,0
938,7, T_Scon, T_Scon_UGLG,336.2, hit,1,0
939,7, T_Sinc, T_Sinc_URRR,419.7, hit,2,0
940,7, T_Sinc, T_Sinc_DGLG,343.1, hit,1,0
941,7, T_Sinc, T_Sinc_DGLG,270.6, hit,1,0
942,7, T_Scon, T_Scon_DRRR,406, hit,2,0
943,7, T_Scon, T_Scon_DRRR,289.5, hit,2,0
944,7, T_Sinc, T_Sinc_URRR,244.9, hit,2,0
945,7, T_Sinc, T_Sinc_DGLG,444.4, hit,1,0
946,7, T_Scon, T_Scon_UGLG,419.7, hit,1,0
947,7, T_Sinc, T_Sinc_DGLG,391.1, hit,1,0
948,7, T_Sinc, T_Sinc_DGLG,382.6, hit,1,0
949,7, T_Sinc, T_Sinc_URRR,394.1, hit,2,0
950,7, T_Sinc, T_Sinc_DGLG,429.5, hit,1,0
951,7, T_Sinc, T_Sinc_DGLG,413, hit,1,0
952,7, T_Sinc, T_Sinc_URRR,404.4, hit,2,0
953,7, T_Sinc, T_Sinc_URRR,383.8, hit,2,0
954,7, T_Sinc, T_Sinc_DGLG,431.3, hit,1,0
955,7, T_Sinc, T_Sinc_URRR,306.6, incorrect,1,1
956,7, T_Sinc, T_Sinc_URRR,246.1, hit,2,0
957,7, T_Sinc, T_Sinc_DGLG,425.5, hit,1,0
958,7, T_Sinc, T_Sinc_DGLG,445, hit,1,0
959,7, T_Scon, T_Scon_DRRR,452.4, hit,2,0
960,7, T_Scon, T_Scon_UGLG,411.9, hit,1,0
961,7, T_Sinc, T_Sinc_URRR,463.3, hit,2,0
962,7, T_Sinc, T_Sinc_URRR,414.8, hit,2,0
963,7, T_Sinc, T_Sinc_URRR,386.2, hit,2,0
964,7, T_Scon, T_Scon_UGLG,477.7, hit,1,0
965,7, T_Scon, T_Scon_UGLG,373, hit,1,0
966,7, T_Sinc, T_Sinc_URRR,696.5, hit,2,2
967,7, T_Sinc, T_Sinc_URRR,415.9, hit,2,0
968,7, T_Sinc, T_Sinc_URRR,323.4, hit,2,0
969,7, T_Scon, T_Scon_UGLG,370.8, hit,1,0
970,7, T_Scon, T_Scon_DRRR,366.3, hit,2,0
971,7, T_Sinc, T_Sinc_URRR,357.7, hit,2,0
972,7, T_Sinc, T_Sinc_URRR,301.2, hit,2,0
973,7, T_Scon, T_Scon_UGLG,364.3, hit,1,0
974,7, T_Scon, T_Scon_UGLG,295.7, hit,1,0
975,7, T_Sinc, T_Sinc_DGLG,379.2, hit,1,0
976,7, T_Sinc, T_Sinc_DGLG,362.6, hit,1,0
977,7, T_Scon, T_Scon_DRRR,382.1, hit,2,0
978,7, T_Scon, T_Scon_UGLG,425.5, hit,1,0
979,7, T_Sinc, T_Sinc_DGLG,364.9, hit,1,0
980,7, T_Sinc, T_Sinc_URRR,340.3, hit,2,0
981,7, T_Sinc, T_Sinc_URRR,287.8, hit,2,0
982,7, T_Sinc, T_Sinc_URRR,403.2, hit,2,0
983,7, T_Scon, T_Scon_UGLG,446.6, hit,1,0
984,7, T_Scon, T_Scon_DRRR,354.1, hit,2,0
985,7, T_Sinc, T_Sinc_DGLG,365.5, hit,1,0
986,7, T_Sinc, T_Sinc_URRR,581, hit,2,0
987,7, T_Sinc, T_Sinc_DGLG,424.4, hit,1,0
988,7, T_Scon, T_Scon_DRRR,555.9, hit,2,0
989,7, T_Sinc, T_Sinc_URRR,471.2, hit,2,0
990,7, T_Sinc, T_Sinc_URRR,362.7, hit,2,0
991,7, T_Sinc, T_Sinc_DGLG,406.1, hit,1,0
992,7, T_Sinc, T_Sinc_DGLG,405.6, hit,1,0
993,7, T_Sinc, T_Sinc_URRR,445, hit,2,0
994,7, T_Sinc, T_Sinc_URRR,348.5, hit,2,0
995,7, T_Sinc, T_Sinc_URRR,351.9, hit,2,0
996,7, T_Sinc, T_Sinc_DGLG,391.4, hit,1,0
997,7, T_Sinc, T_Sinc_DGLG,338.8, hit,1,0
998,7, T_Sinc, T_Sinc_DGLG,318.2, hit,1,0
999,7, T_Sinc, T_Sinc_URRR,377.6, hit,2,0
1000,7, T_Sinc, T_Sinc_URRR,337.1, hit,2,0
1001,7, T_Scon, T_Scon_DRRR,396.5, hit,2,0
1002,7, T_Sinc, T_Sinc_DGLG,388, hit,1,0
1003,7, T_Scon, T_Scon_DRRR,391.4, hit,2,0
1004,7, T_Sinc, T_Sinc_DGLG,490.8, hit,1,0
1005,7, T_Sinc, T_Sinc_DGLG,486.3, hit,1,0
1006,7, T_Scon, T_Scon_UGLG,425.8, hit,1,0
1007,7, T_Sinc, T_Sinc_URRR,357.1, hit,2,0
1008,7, T_Sinc, T_Sinc_DGLG,568.5, hit,1,0
1009,8, T_Sinc, T_Sinc_URRR,576.2, hit,2,0
1010,8, T_Sinc, T_Sinc_DGLG,395.6, hit,1,0
1011,8, T_Sinc, T_Sinc_URRR,391.1, hit,2,0
1012,8, T_Sinc, T_Sinc_URRR,290.5, hit,2,0
1013,8, T_Scon, T_Scon_DRRR,325.9, hit,2,0
1014,8, T_Sinc, T_Sinc_URRR,309.3, hit,2,0
1015,8, T_Sinc, T_Sinc_URRR,268.8, hit,2,0
1016,8, T_Scon, T_Scon_DRRR,336.2, hit,2,0
1017,8, T_Sinc, T_Sinc_DGLG,475.6, hit,1,0
1018,8, T_Sinc, T_Sinc_URRR,359.1, hit,2,0
1019,8, T_Sinc, T_Sinc_URRR,330.5, hit,2,0
1020,8, T_Sinc, T_Sinc_URRR,302, hit,2,0
1021,8, T_Sinc, T_Sinc_URRR,329.4, hit,2,0
1022,8, T_Scon, T_Scon_DRRR,436.9, hit,2,0
1023,8, T_Sinc, T_Sinc_URRR,432.3, hit,2,0
1024,8, T_Sinc, T_Sinc_DGLG,523.8, hit,1,0
1025,8, T_Sinc, T_Sinc_URRR,375.2, hit,2,0
1026,8, T_Sinc, T_Sinc_DGLG,434.7, hit,1,0
1027,8, T_Scon, T_Scon_DRRR,454.1, hit,2,0
1028,8, T_Sinc, T_Sinc_DGLG,429.5, hit,1,0
1029,8, T_Scon, T_Scon_UGLG,500.9, incorrect,2,1
1030,8, T_Sinc, T_Sinc_DGLG,496.3, hit,1,0
1031,8, T_Sinc, T_Sinc_URRR,391.8, hit,2,0
1032,8, T_Sinc, T_Sinc_URRR,315.2, incorrect,1,1
1033,8, T_Sinc, T_Sinc_URRR,390.7, hit,2,0
1034,8, T_Sinc, T_Sinc_DGLG,434.1, hit,1,0
1035,8, T_Scon, T_Scon_DRRR,493.6, hit,2,0
1036,8, T_Sinc, T_Sinc_URRR,397, hit,2,0
1037,8, T_Scon, T_Scon_DRRR,424.5, hit,2,0
1038,8, T_Sinc, T_Sinc_DGLG,423.8, hit,1,0
1039,8, T_Sinc, T_Sinc_URRR,455.3, hit,2,0
1040,8, T_Sinc, T_Sinc_DGLG,418.7, hit,1,0
1041,8, T_Sinc, T_Sinc_DGLG,394.2, hit,1,0
1042,8, T_Scon, T_Scon_UGLG,449.6, hit,1,0
1043,8, T_Scon, T_Scon_DRRR,457.1, hit,2,0
1044,8, T_Sinc, T_Sinc_URRR,484.5, hit,2,0
1045,8, T_Sinc, T_Sinc_DGLG,659.7, hit,1,0
1046,8, T_Scon, T_Scon_UGLG,367.1, hit,1,0
1047,8, T_Scon, T_Scon_DRRR,458.5, hit,2,0
1048,8, T_Sinc, T_Sinc_URRR,318, hit,2,0
1049,8, T_Sinc, T_Sinc_URRR,325.4, hit,2,0
1050,8, T_Scon, T_Scon_UGLG,432.8, hit,1,0
1051,8, T_Scon, T_Scon_DRRR,384.2, hit,2,0
1052,8, T_Sinc, T_Sinc_DGLG,363.7, hit,1,0
1053,8, T_Sinc, T_Sinc_DGLG,335.1, hit,1,0
1054,8, T_Scon, T_Scon_UGLG,298.6, hit,1,0
1055,8, T_Sinc, T_Sinc_DGLG,334, hit,1,0
1056,8, T_Sinc, T_Sinc_URRR,449.5, hit,2,0
1057,8, T_Scon, T_Scon_UGLG,396.9, hit,1,0
1058,8, T_Sinc, T_Sinc_URRR,616.3, hit,2,0
1059,8, T_Scon, T_Scon_UGLG,327.7, hit,1,0
1060,8, T_Sinc, T_Sinc_DGLG,399.2, hit,1,0
1061,8, T_Sinc, T_Sinc_URRR,394.6, hit,2,0
1062,8, T_Sinc, T_Sinc_DGLG,378.1, hit,1,0
1063,8, T_Sinc, T_Sinc_DGLG,317.5, hit,1,0
1064,8, T_Sinc, T_Sinc_URRR,356.9, hit,2,0
1065,8, T_Sinc, T_Sinc_URRR,280.4, hit,2,0
1066,8, T_Sinc, T_Sinc_DGLG,387.8, hit,1,0
1067,8, T_Sinc, T_Sinc_DGLG,295.3, hit,1,0
1068,8, T_Sinc, T_Sinc_URRR,390.7, hit,2,0
1069,8, T_Sinc, T_Sinc_DGLG,326.1, hit,1,0
1070,8, T_Scon, T_Scon_UGLG,397.5, hit,1,0
1071,8, T_Scon, T_Scon_DRRR,393, hit,2,0
1072,8, T_Sinc, T_Sinc_DGLG,436.4, hit,1,0
1073,8, T_Sinc, T_Sinc_DGLG,331.9, hit,1,0
1074,8, T_Sinc, T_Sinc_DGLG,255.3, hit,1,0
1075,8, T_Sinc, T_Sinc_URRR,454.8, hit,2,0
1076,8, T_Scon, T_Scon_UGLG,606.2, hit,1,0
1077,8, T_Sinc, T_Sinc_URRR,517.7, hit,2,0
1078,8, T_Scon, T_Scon_DRRR,425.1, hit,2,0
1079,8, T_Sinc, T_Sinc_DGLG,344.6, hit,1,0
1080,8, T_Sinc, T_Sinc_DGLG,387.9, hit,1,0
1081,8, T_Sinc, T_Sinc_URRR,403.2, hit,2,0
1082,8, T_Sinc, T_Sinc_DGLG,430.6, hit,1,0
1083,8, T_Sinc, T_Sinc_DGLG,329.9, hit,1,0
1084,8, T_Sinc, T_Sinc_DGLG,365.4, hit,1,0
1085,8, T_Sinc, T_Sinc_URRR,380.8, hit,2,0
1086,8, T_Sinc, T_Sinc_DGLG,348.3, hit,1,0
1087,8, T_Sinc, T_Sinc_DGLG,355.7, incorrect,2,1
1088,8, T_Sinc, T_Sinc_DGLG,239.2, hit,1,0
1089,8, T_Scon, T_Scon_UGLG,290.6, hit,1,0
1090,8, T_Scon, T_Scon_DRRR,290.1, hit,2,0
1091,8, T_Sinc, T_Sinc_DGLG,405.4, hit,1,0
1092,8, T_Sinc, T_Sinc_URRR,456.9, hit,2,0
1093,8, T_Sinc, T_Sinc_DGLG,368.3, hit,1,0
1094,8, T_Sinc, T_Sinc_DGLG,379.8, hit,1,0
1095,8, T_Sinc, T_Sinc_DGLG,327.2, hit,1,0
1096,8, T_Sinc, T_Sinc_DGLG,306.7, hit,1,0
1097,8, T_Sinc, T_Sinc_URRR,390, hit,2,0
1098,8, T_Sinc, T_Sinc_DGLG,321.4, hit,1,0
1099,8, T_Sinc, T_Sinc_URRR,372.9, hit,2,0
1100,8, T_Sinc, T_Sinc_URRR,428.3, hit,2,0
1101,8, T_Sinc, T_Sinc_URRR,279.8, hit,2,0
1102,8, T_Sinc, T_Sinc_DGLG,391.2, hit,1,0
1103,8, T_Sinc, T_Sinc_DGLG,394.7, hit,1,0
1104,8, T_Scon, T_Scon_UGLG,354.1, hit,1,0
1105,8, T_Sinc, T_Sinc_URRR,357.6, hit,2,0
1106,8, T_Sinc, T_Sinc_URRR,465, hit,2,0
1107,8, T_Sinc, T_Sinc_DGLG,364.5, hit,1,0
1108,8, T_Sinc, T_Sinc_URRR,375.9, hit,2,0
1109,8, T_Scon, T_Scon_UGLG,299.4, hit,1,0
1110,8, T_Sinc, T_Sinc_URRR,430.7, hit,2,0
1111,8, T_Sinc, T_Sinc_DGLG,426.2, hit,1,0
1112,8, T_Sinc, T_Sinc_URRR,393.6, hit,2,0
1113,8, T_Sinc, T_Sinc_DGLG,405, hit,1,0
1114,8, T_Scon, T_Scon_UGLG,360.5, hit,1,0
1115,8, T_Sinc, T_Sinc_URRR,460, hit,2,0
1116,8, T_Sinc, T_Sinc_URRR,447.4, hit,2,0
1117,8, T_Scon, T_Scon_UGLG,338, hit,1,0
1118,8, T_Scon, T_Scon_UGLG,309.4, hit,1,0
1119,8, T_Sinc, T_Sinc_DGLG,336.9, hit,1,0
1120,8, T_Scon, T_Scon_DRRR,304.3, incorrect,1,1
1121,8, T_Sinc, T_Sinc_URRR,475.8, hit,2,0
1122,8, T_Sinc, T_Sinc_URRR,303.2, hit,2,0
1123,8, T_Sinc, T_Sinc_URRR,318.6, hit,2,0
1124,8, T_Sinc, T_Sinc_URRR,306, hit,2,0
1125,8, T_Scon, T_Scon_UGLG,413.4, hit,1,0
1126,8, T_Sinc, T_Sinc_URRR,492.9, hit,2,0
1127,8, T_Scon, T_Scon_DRRR,424.3, hit,2,0
1128,8, T_Scon, T_Scon_DRRR,375.8, hit,2,0
1129,8, T_Sinc, T_Sinc_DGLG,403.2, hit,1,0
1130,8, T_Sinc, T_Sinc_DGLG,398.7, hit,1,0
1131,8, T_Sinc, T_Sinc_DGLG,310.1, hit,1,0
1132,8, T_Sinc, T_Sinc_URRR,417.5, hit,2,0
1133,8, T_Sinc, T_Sinc_DGLG,433, hit,1,0
1134,8, T_Sinc, T_Sinc_URRR,476.4, hit,2,0
1135,8, T_Sinc, T_Sinc_URRR,371.8, hit,2,0
1136,8, T_Sinc, T_Sinc_URRR,375.3, hit,2,0
1137,8, T_Sinc, T_Sinc_DGLG,398.7, hit,1,0
1138,8, T_Sinc, T_Sinc_URRR,494.2, hit,2,0
1139,8, T_Scon, T_Scon_DRRR,409.6, hit,2,0
1140,8, T_Sinc, T_Sinc_URRR,321.1, hit,2,0
1141,8, T_Scon, T_Scon_UGLG,384.5, hit,1,0
1142,8, T_Sinc, T_Sinc_DGLG,424, hit,1,0
1143,8, T_Sinc, T_Sinc_URRR,467.4, hit,2,0
1144,8, T_Scon, T_Scon_DRRR,382.7, hit,2,0
1145,8, T_Sinc, T_Sinc_DGLG,470.2, hit,1,0
1146,8, T_Sinc, T_Sinc_DGLG,449.7, hit,1,0
1147,8, T_Sinc, T_Sinc_URRR,437.1, hit,2,0
1148,8, T_Sinc, T_Sinc_DGLG,384.5, hit,1,0
1149,8, T_Sinc, T_Sinc_DGLG,360, hit,1,0
1150,8, T_Scon, T_Scon_DRRR,443.4, hit,2,0
1151,8, T_Scon, T_Scon_UGLG,414.9, hit,1,0
1152,9, T_Sinc, T_Sinc_DGLG,399.8, hit,1,0
1153,9, T_Scon, T_Scon_UGLG,359.3, hit,1,0
1154,9, T_Sinc, T_Sinc_URRR,338.7, incorrect,1,1
1155,9, T_Scon, T_Scon_DRRR,366.1, hit,2,0
1156,9, T_Sinc, T_Sinc_DGLG,389.6, hit,1,0
1157,9, T_Sinc, T_Sinc_URRR,385, hit,2,0
1158,9, T_Sinc, T_Sinc_DGLG,344.5, hit,1,0
1159,9, T_Sinc, T_Sinc_DGLG,343.9, hit,1,0
1160,9, T_Scon, T_Scon_DRRR,387.4, hit,2,0
1161,9, T_Scon, T_Scon_UGLG,414.8, hit,1,0
1162,9, T_Sinc, T_Sinc_URRR,386.3, hit,2,0
1163,9, T_Sinc, T_Sinc_URRR,285.7, hit,2,0
1164,9, T_Sinc, T_Sinc_URRR,377.2, hit,2,0
1165,9, T_Sinc, T_Sinc_URRR,300.6, hit,2,0
1166,9, T_Scon, T_Scon_UGLG,432, hit,1,0
1167,9, T_Sinc, T_Sinc_URRR,395.4, hit,2,0
1168,9, T_Sinc, T_Sinc_URRR,390.8, hit,2,0
1169,9, T_Sinc, T_Sinc_URRR,370.3, hit,2,0
1170,9, T_Sinc, T_Sinc_URRR,317.7, hit,2,0
1171,9, T_Sinc, T_Sinc_DGLG,417.2, hit,1,0
1172,9, T_Sinc, T_Sinc_DGLG,308.6, hit,1,0
1173,9, T_Sinc, T_Sinc_DGLG,392.1, hit,1,0
1174,9, T_Sinc, T_Sinc_DGLG,303.5, hit,1,0
1175,9, T_Scon, T_Scon_UGLG,363, hit,1,0
1176,9, T_Sinc, T_Sinc_DGLG,366.4, hit,1,0
1177,9, T_Sinc, T_Sinc_URRR,677.9, hit,2,2
1178,9, T_Sinc, T_Sinc_DGLG,457.3, hit,1,0
1179,9, T_Scon, T_Scon_UGLG,300.8, hit,1,0
1180,9, T_Sinc, T_Sinc_DGLG,368.1, hit,1,0
1181,9, T_Sinc, T_Sinc_URRR,427.5, hit,2,0
1182,9, T_Sinc, T_Sinc_URRR,403, hit,2,0
1183,9, T_Scon, T_Scon_UGLG,446.4, hit,1,0
1184,9, T_Scon, T_Scon_UGLG,301.9, hit,1,0
1185,9, T_Sinc, T_Sinc_DGLG,413.3, hit,1,0
1186,9, T_Sinc, T_Sinc_URRR,448.8, hit,2,0
1187,9, T_Sinc, T_Sinc_DGLG,388.2, hit,1,0
1188,9, T_Scon, T_Scon_UGLG,331.4, hit,1,0
1189,9, T_Sinc, T_Sinc_DGLG,350.8, hit,1,0
1190,9, T_Sinc, T_Sinc_DGLG,386.3, hit,1,0
1191,9, T_Scon, T_Scon_UGLG,293.7, hit,1,0
1192,9, T_Sinc, T_Sinc_URRR,705.1, hit,2,2
1193,9, T_Scon, T_Scon_DRRR,372.6, hit,2,0
1194,9, T_Scon, T_Scon_DRRR,352, hit,2,0
1195,9, T_Sinc, T_Sinc_DGLG,535.5, hit,1,0
1196,9, T_Scon, T_Scon_DRRR,594.8, hit,2,0
1197,9, T_Sinc, T_Sinc_URRR,474.3, hit,2,0
1198,9, T_Sinc, T_Sinc_URRR,357.7, hit,2,0
1199,9, T_Sinc, T_Sinc_DGLG,637.2, hit,1,0
1200,9, T_Scon, T_Scon_DRRR,480.6, hit,2,0
1201,9, T_Sinc, T_Sinc_URRR,436.1, hit,2,0
1202,9, T_Sinc, T_Sinc_DGLG,439.5, incorrect,2,1
1203,9, T_Sinc, T_Sinc_DGLG,174.9, hit,1,0
1204,9, T_Sinc, T_Sinc_URRR,398.3, hit,2,0
1205,9, T_Sinc, T_Sinc_URRR,397.8, hit,2,0
1206,9, T_Sinc, T_Sinc_URRR,369.2, hit,2,0
1207,9, T_Sinc, T_Sinc_DGLG,364.7, hit,1,0
1208,9, T_Sinc, T_Sinc_DGLG,484.1, hit,1,0
1209,9, T_Sinc, T_Sinc_URRR,475.5, hit,2,0
1210,9, T_Sinc, T_Sinc_DGLG,399, hit,1,0
1211,9, T_Sinc, T_Sinc_URRR,666.4, hit,2,0
1212,9, T_Sinc, T_Sinc_DGLG,421.8, hit,1,0
1213,9, T_Sinc, T_Sinc_DGLG,349.2, hit,1,0
1214,9, T_Scon, T_Scon_UGLG,312.7, hit,1,0
1215,9, T_Sinc, T_Sinc_URRR,444.1, hit,2,0
1216,9, T_Sinc, T_Sinc_URRR,315.6, hit,2,0
1217,9, T_Sinc, T_Sinc_URRR,315, hit,2,0
1218,9, T_Sinc, T_Sinc_URRR,294.5, hit,2,0
1219,9, T_Scon, T_Scon_UGLG,449.8, hit,1,0
1220,9, T_Sinc, T_Sinc_URRR,505.3, hit,2,0
1221,9, T_Scon, T_Scon_DRRR,376.8, hit,2,0
1222,9, T_Sinc, T_Sinc_URRR,416.2, hit,2,0
1223,9, T_Sinc, T_Sinc_URRR,323.6, hit,2,0
1224,9, T_Scon, T_Scon_DRRR,454.8, hit,2,0
1225,9, T_Sinc, T_Sinc_DGLG,494.2, hit,1,0
1226,9, T_Sinc, T_Sinc_DGLG,325.6, hit,1,0
1227,9, T_Sinc, T_Sinc_DGLG,317.1, hit,1,0
1228,9, T_Sinc, T_Sinc_URRR,608.5, hit,2,0
1229,9, T_Sinc, T_Sinc_URRR,328, hit,2,0
1230,9, T_Sinc, T_Sinc_URRR,267.4, hit,2,0
1231,9, T_Sinc, T_Sinc_DGLG,362.9, hit,1,0
1232,9, T_Scon, T_Scon_UGLG,322.2, hit,1,0
1233,9, T_Sinc, T_Sinc_DGLG,309.7, hit,1,0
1234,9, T_Scon, T_Scon_DRRR,353.1, hit,2,0
1235,9, T_Sinc, T_Sinc_URRR,372.6, hit,2,0
1236,9, T_Sinc, T_Sinc_DGLG,400, hit,1,0
1237,9, T_Sinc, T_Sinc_DGLG,395.5, hit,1,0
1238,9, T_Sinc, T_Sinc_DGLG,354.9, hit,1,0
1239,9, T_Sinc, T_Sinc_DGLG,278.3, hit,1,0
1240,9, T_Sinc, T_Sinc_URRR,493.8, hit,2,0
1241,9, T_Sinc, T_Sinc_URRR,353.3, hit,2,0
1242,9, T_Sinc, T_Sinc_DGLG,352.7, hit,1,0
1243,9, T_Sinc, T_Sinc_URRR,404.2, hit,2,0
1244,9, T_Sinc, T_Sinc_DGLG,431.5, hit,1,0
1245,9, T_Sinc, T_Sinc_URRR,746.9, hit,2,2
1246,9, T_Scon, T_Scon_DRRR,398.4, hit,2,0
1247,9, T_Scon, T_Scon_DRRR,341.8, hit,2,0
1248,9, T_Scon, T_Scon_DRRR,297.3, hit,2,0
1249,9, T_Sinc, T_Sinc_DGLG,440.7, hit,1,0
1250,9, T_Sinc, T_Sinc_URRR,416.2, hit,2,0
1251,9, T_Sinc, T_Sinc_DGLG,443.6, hit,1,0
1252,9, T_Sinc, T_Sinc_URRR,415.1, hit,2,0
1253,9, T_Sinc, T_Sinc_DGLG,506.5, hit,1,0
1254,9, T_Sinc, T_Sinc_URRR,349.9, hit,2,0
1255,9, T_Scon, T_Scon_DRRR,345.3, hit,2,0
1256,9, T_Scon, T_Scon_UGLG,332.8, hit,1,0
1257,9, T_Sinc, T_Sinc_DGLG,364.2, hit,1,0
1258,9, T_Sinc, T_Sinc_DGLG,411.7, hit,1,0
1259,9, T_Sinc, T_Sinc_URRR,407.1, hit,2,0
1260,9, T_Sinc, T_Sinc_URRR,398.3, hit,2,0
1261,9, T_Scon, T_Scon_DRRR,341.7, hit,2,0
1262,9, T_Sinc, T_Sinc_URRR,337.1, hit,2,0
1263,9, T_Sinc, T_Sinc_URRR,276.5, hit,2,0
1264,9, T_Sinc, T_Sinc_DGLG,415.9, hit,1,0
1265,9, T_Sinc, T_Sinc_URRR,475.4, hit,2,0
1266,9, T_Sinc, T_Sinc_DGLG,382.8, hit,1,0
1267,9, T_Sinc, T_Sinc_DGLG,330.3, hit,1,0
1268,9, T_Scon, T_Scon_UGLG,357.7, hit,1,0
1269,9, T_Sinc, T_Sinc_DGLG,325.2, hit,1,0
1270,9, T_Scon, T_Scon_UGLG,360.6, hit,1,0
1271,9, T_Sinc, T_Sinc_DGLG,356.1, hit,1,0
1272,9, T_Sinc, T_Sinc_URRR,407.5, hit,2,0
1273,9, T_Sinc, T_Sinc_DGLG,394.9, hit,1,0
1274,9, T_Sinc, T_Sinc_DGLG,258.3, hit,1,0
1275,9, T_Sinc, T_Sinc_DGLG,409.8, hit,1,0
1276,9, T_Sinc, T_Sinc_URRR,445.2, hit,2,0
1277,9, T_Sinc, T_Sinc_DGLG,656.7, hit,1,0
1278,9, T_Sinc, T_Sinc_URRR,580.1, hit,2,0
1279,9, T_Sinc, T_Sinc_URRR,431.5, hit,2,0
1280,9, T_Sinc, T_Sinc_URRR,323, hit,2,0
1281,9, T_Scon, T_Scon_UGLG,550.5, hit,1,0
1282,9, T_Sinc, T_Sinc_URRR,397.9, hit,2,0
1283,9, T_Scon, T_Scon_UGLG,421.3, hit,1,0
1284,9, T_Scon, T_Scon_UGLG,252.8, hit,1,0
1285,9, T_Sinc, T_Sinc_URRR,272.2, hit,2,0
1286,9, T_Scon, T_Scon_DRRR,459.6, hit,2,0
1287,9, T_Sinc, T_Sinc_DGLG,399, hit,1,0
1288,9, T_Scon, T_Scon_DRRR,310.5, hit,2,0
1289,9, T_Sinc, T_Sinc_DGLG,409.9, hit,1,0
1290,9, T_Sinc, T_Sinc_DGLG,357.4, hit,1,0
1291,9, T_Sinc, T_Sinc_DGLG,336.8, hit,1,0
1292,9, T_Scon, T_Scon_DRRR,400.3, hit,2,0
1293,9, T_Sinc, T_Sinc_URRR,555.7, hit,2,0
1294,9, T_Scon, T_Scon_DRRR,451.1, hit,2,0
1295,9, T_Sinc, T_Sinc_DGLG,446.5, hit,1,0
