trial_index, block, condition, full_condition_code, RT, response_type, response_key, error_outlier
1, 1, T_Sinc, T_Sinc_URRR, 440.2, hit, 2, 0
2, 1, T_Scon, T_Scon_DRRR, 395.7, hit, 2, 0
3, 1, T_Sinc, T_Sinc_DGLG, 351.1, incorrect, 2, 1
4, 1, T_Scon, T_Scon_DRRR, 414.5, hit, 2, 0
5, 1, T_Scon, T_Scon_UGLG, 290.0, hit, 1, 0
6, 1, T_Scon, T_Scon_DRRR, 285.4, hit, 2, 0
7, 1, T_Scon, T_Scon_UGLG, 364.8, hit, 1, 0
8, 1, T_Scon, T_Scon_UGLG, 412.3, hit, 1, 0
9, 1, T_Scon, T_Scon_UGLG, 375.8, hit, 1, 0
10, 1, T_Scon, T_Scon_UGLG, 423.1, hit, 1, 0
11, 1, T_Scon, T_Scon_UGLG, 386.6, hit, 1, 0
12, 1, T_Scon, T_Scon_DRRR, 334.0, hit, 2, 0
13, 1, T_Scon, T_Scon_DRRR, 389.4, hit, 2, 0
14, 1, T_Sinc, T_Sinc_DGLG, 496.9, hit, 1, 0
15, 1, T_Sinc, T_Sinc_DGLG, 336.3, hit, 1, 0
16, 1, T_Sinc, T_Sinc_URRR, 451.8, hit, 2, 0
17, 1, T_Scon, T_Scon_UGLG, 431.2, hit, 1, 0
18, 1, T_Scon, T_Scon_DRRR, 298.7, hit, 2, 0
19, 1, T_Scon, T_Scon_UGLG, 246.1, hit, 1, 0
20, 1, T_Scon, T_Scon_DRRR, 257.6, hit, 2, 0
21, 1, T_Scon, T_Scon_UGLG, 245.0, hit, 1, 0
22, 1, T_Scon, T_Scon_DRRR, 288.4, hit, 2, 0
23, 1, T_Scon, T_Scon_UGLG, 275.8, hit, 1, 0
24, 1, T_Scon, T_Scon_DRRR, 279.3, hit, 2, 0
25, 1, T_Scon, T_Scon_UGLG, 298.8, hit, 1, 0
26, 1, T_Sinc, T_Sinc_DGLG, 350.2, hit, 1, 0
27, 1, T_Scon, T_Scon_DRRR, 369.5, hit, 2, 0
28, 1, T_Scon, T_Scon_DRRR, 405.0, hit, 2, 0
29, 1, T_Sinc, T_Sinc_URRR, 276.4, incorrect, 1, 1
30, 1, T_Scon, T_Scon_DRRR, 391.9, hit, 2, 0
31, 1, T_Sinc, T_Sinc_DGLG, 267.3, hit, 1, 0
32, 1, T_Scon, T_Scon_UGLG, 374.8, hit, 1, 0
33, 1, T_Scon, T_Scon_UGLG, 430.2, hit, 1, 0
34, 1, T_Scon, T_Scon_DRRR, 273.7, hit, 2, 0
35, 1, T_Sinc, T_Sinc_URRR, 417.1, hit, 2, 0
36, 1, T_Scon, T_Scon_DRRR, 260.6, incorrect, 1, 1
37, 1, T_Scon, T_Scon_DRRR, 391.7, hit, 2, 0
38, 1, T_Scon, T_Scon_DRRR, 379.1, hit, 2, 0
39, 1, T_Scon, T_Scon_DRRR, 366.6, hit, 2, 0
40, 1, T_Scon, T_Scon_DRRR, 370.0, hit, 2, 0
41, 1, T_Sinc, T_Sinc_DGLG, 365.4, hit, 1, 0
42, 1, T_Sinc, T_Sinc_DGLG, 284.9, hit, 1, 0
43, 1, T_Sinc, T_Sinc_URRR, 304.2, hit, 2, 0
44, 1, T_Sinc, T_Sinc_DGLG, 271.7, hit, 1, 0
45, 1, T_Scon, T_Scon_DRRR, 315.2, hit, 2, 0
46, 1, T_Scon, T_Scon_DRRR, 354.6, hit, 2, 0
47, 1, T_Scon, T_Scon_UGLG, 382.0, hit, 1, 0
48, 1, T_Sinc, T_Sinc_URRR, 389.5, incorrect, 1, 1
49, 1, T_Scon, T_Scon_DRRR, 320.9, hit, 2, 0
50, 1, T_Scon, T_Scon_UGLG, 332.4, hit, 1, 0
51, 1, T_Scon, T_Scon_UGLG, 371.8, hit, 1, 0
52, 1, T_Sinc, T_Sinc_DGLG, 503.3, hit, 1, 0
53, 1, T_Scon, T_Scon_DRRR, 562.6, hit, 2, 0
54, 1, T_Scon, T_Scon_UGLG, 290.1, hit, 1, 0
55, 1, T_Scon, T_Scon_DRRR, 465.5, hit, 2, 0
56, 1, T_Scon, T_Scon_UGLG, 309.0, hit, 1, 0
57, 1, T_Scon, T_Scon_DRRR, 352.4, hit, 2, 0
58, 1, T_Scon, T_Scon_DRRR, 371.9, hit, 2, 0
59, 1, T_Scon, T_Scon_UGLG, 291.3, hit, 1, 0
60, 1, T_Scon, T_Scon_DRRR, 350.8, hit, 2, 0
61, 1, T_Sinc, T_Sinc_URRR, 370.2, hit, 2, 0
62, 1, T_Scon, T_Scon_DRRR, 309.6, incorrect, 1, 1
63, 1, T_Scon, T_Scon_UGLG, 373.0, hit, 1, 0
64, 1, T_Scon, T_Scon_DRRR, 360.4, hit, 2, 0
65, 1, T_Scon, T_Scon_UGLG, 571.9, hit, 1, 0
66, 1, T_Sinc, T_Sinc_URRR, 343.3, hit, 2, 0
67, 1, T_Scon, T_Scon_DRRR, 378.8, hit, 2, 0
68, 1, T_Scon, T_Scon_DRRR, 334.3, hit, 2, 0
69, 1, T_Scon, T_Scon_DRRR, 349.7, hit, 2, 0
70, 1, T_Scon, T_Scon_DRRR, 321.1, hit, 2, 0
71, 1, T_Scon, T_Scon_UGLG, 300.6, hit, 1, 0
72, 1, T_Scon, T_Scon_UGLG, 340.0, hit, 1, 0
73, 1, T_Sinc, T_Sinc_URRR, 419.2, hit, 2, 0
74, 1, T_Sinc, T_Sinc_URRR, 266.6, incorrect, 1, 1
75, 1, T_Scon, T_Scon_UGLG, 350.1, hit, 1, 0
76, 1, T_Scon, T_Scon_DRRR, 345.5, hit, 2, 0
77, 1, T_Scon, T_Scon_UGLG, 329.0, hit, 1, 0
78, 1, T_Scon, T_Scon_UGLG, 328.3, hit, 1, 0
79, 1, T_Scon, T_Scon_UGLG, 339.7, hit, 1, 0
80, 1, T_Sinc, T_Sinc_DGLG, 371.2, hit, 1, 0
81, 1, T_Scon, T_Scon_UGLG, 330.7, hit, 1, 0
82, 1, T_Sinc, T_Sinc_URRR, 310.1, hit, 2, 0
83, 1, T_Sinc, T_Sinc_DGLG, 345.5, hit, 1, 0
84, 1, T_Scon, T_Scon_UGLG, 385.0, hit, 1, 0
85, 1, T_Sinc, T_Sinc_DGLG, 404.3, hit, 1, 0
86, 1, T_Scon, T_Scon_UGLG, 463.8, hit, 1, 0
87, 1, T_Sinc, T_Sinc_DGLG, 271.2, hit, 1, 0
88, 1, T_Scon, T_Scon_DRRR, 242.7, hit, 2, 0
89, 1, T_Scon, T_Scon_UGLG, 330.1, hit, 1, 0
90, 1, T_Sinc, T_Sinc_URRR, 425.6, hit, 2, 0
91, 1, T_Scon, T_Scon_DRRR, 373.0, hit, 2, 0
92, 1, T_Sinc, T_Sinc_DGLG, 364.5, hit, 1, 0
93, 1, T_Scon, T_Scon_DRRR, 343.9, hit, 2, 0
94, 1, T_Sinc, T_Sinc_URRR, 343.4, hit, 2, 0
95, 1, T_Scon, T_Scon_UGLG, 278.7, hit, 1, 0
96, 1, T_Scon, T_Scon_UGLG, 490.2, hit, 1, 0
97, 1, T_Scon, T_Scon_DRRR, 389.6, hit, 2, 0
98, 1, T_Sinc, T_Sinc_URRR, 405.1, hit, 2, 0
99, 1, T_Scon, T_Scon_UGLG, 328.5, hit, 1, 0
100, 1, T_Scon, T_Scon_DRRR, 348.0, hit, 2, 0
101, 1, T_Scon, T_Scon_DRRR, 343.4, hit, 2, 0
102, 1, T_Sinc, T_Sinc_DGLG, 438.8, hit, 1, 0
103, 1, T_Scon, T_Scon_UGLG, 366.3, hit, 1, 0
104, 1, T_Scon, T_Scon_UGLG, 361.7, hit, 1, 0
105, 1, T_Scon, T_Scon_UGLG, 357.2, hit, 1, 0
106, 1, T_Scon, T_Scon_UGLG, 340.6, hit, 1, 0
107, 1, T_Scon, T_Scon_UGLG, 376.0, hit, 1, 0
108, 1, T_Scon, T_Scon_DRRR, 339.4, hit, 2, 0
109, 1, T_Scon, T_Scon_UGLG, 454.7, hit, 1, 0
110, 1, T_Scon, T_Scon_DRRR, 378.0, hit, 2, 0
111, 1, T_Scon, T_Scon_UGLG, 333.5, hit, 1, 0
112, 1, T_Scon, T_Scon_UGLG, 324.9, hit, 1, 0
113, 1, T_Scon, T_Scon_DRRR, 328.4, hit, 2, 0
114, 1, T_Sinc, T_Sinc_DGLG, 343.8, incorrect, 2, 1
115, 1, T_Scon, T_Scon_UGLG, 239.2, hit, 1, 0
116, 1, T_Sinc, T_Sinc_URRR, 402.7, hit, 2, 0
117, 1, T_Sinc, T_Sinc_DGLG, 406.1, hit, 1, 0
118, 1, T_Scon, T_Scon_UGLG, 341.6, hit, 1, 0
119, 1, T_Sinc, T_Sinc_URRR, 364.9, hit, 2, 0
120, 1, T_Scon, T_Scon_UGLG, 400.4, hit, 1, 0
121, 1, T_Scon, T_Scon_UGLG, 371.8, hit, 1, 0
122, 1, T_Sinc, T_Sinc_URRR, 379.3, incorrect, 1, 1
123, 1, T_Scon, T_Scon_UGLG, 334.7, hit, 1, 0
124, 1, T_Scon, T_Scon_UGLG, 394.2, hit, 1, 0
125, 1, T_Scon, T_Scon_UGLG, 437.6, hit, 1, 0
126, 1, T_Scon, T_Scon_UGLG, 393.1, hit, 1, 0
127, 1, T_Scon, T_Scon_DRRR, 324.5, hit, 2, 0
128, 1, T_Scon, T_Scon_DRRR, 308.0, hit, 2, 0
129, 1, T_Scon, T_Scon_UGLG, 335.4, hit, 1, 0
130, 1, T_Scon, T_Scon_UGLG, 354.8, hit, 1, 0
131, 1, T_Scon, T_Scon_DRRR, 382.3, hit, 2, 0
132, 1, T_Scon, T_Scon_DRRR, 361.7, hit, 2, 0
133, 1, T_Scon, T_Scon_UGLG, 357.2, hit, 1, 0
134, 1, T_Scon, T_Scon_DRRR, 352.6, hit, 2, 0
135, 1, T_Scon, T_Scon_DRRR, 356.1, hit, 2, 0
136, 1, T_Sinc, T_Sinc_URRR, 351.5, hit, 2, 0
137, 1, T_Scon, T_Scon_DRRR, 351.0, hit, 2, 0
138, 1, T_Scon, T_Scon_DRRR, 322.4, hit, 2, 0
139, 1, T_Sinc, T_Sinc_DGLG, 373.8, hit, 1, 0
140, 1, T_Scon, T_Scon_DRRR, 345.2, incorrect, 1, 1
141, 1, T_Scon, T_Scon_UGLG, 448.6, hit, 1, 0
142, 1, T_Scon, T_Scon_DRRR, 300.1, hit, 2, 0
143, 1, T_Scon, T_Scon_DRRR, 343.5, hit, 2, 0
144, 1, T_Scon, T_Scon_DRRR, 327.0, hit, 2, 0
145, 2, T_Scon, T_Scon_UGLG, 576.6, incorrect, 2, 1
146, 2, T_Scon, T_Scon_UGLG, 332.0, hit, 1, 0
147, 2, T_Scon, T_Scon_UGLG, 271.5, hit, 1, 0
148, 2, T_Sinc, T_Sinc_DGLG, 422.9, hit, 1, 0
149, 2, T_Scon, T_Scon_UGLG, 290.3, hit, 1, 0
150, 2, T_Scon, T_Scon_UGLG, 285.7, hit, 1, 0
151, 2, T_Scon, T_Scon_DRRR, 393.2, hit, 2, 0
152, 2, T_Sinc, T_Sinc_DGLG, 344.6, hit, 1, 0
153, 2, T_Sinc, T_Sinc_URRR, 384.1, hit, 2, 0
154, 2, T_Sinc, T_Sinc_URRR, 455.5, hit, 2, 0
155, 2, T_Scon, T_Scon_UGLG, 298.9, hit, 1, 0
156, 2, T_Sinc, T_Sinc_URRR, 346.4, incorrect, 1, 1
157, 2, T_Scon, T_Scon_UGLG, 317.8, hit, 1, 0
158, 2, T_Sinc, T_Sinc_DGLG, 393.3, hit, 1, 0
159, 2, T_Sinc, T_Sinc_URRR, 292.7, hit, 2, 0
160, 2, T_Scon, T_Scon_UGLG, 424.1, hit, 1, 0
161, 2, T_Scon, T_Scon_DRRR, 387.5, hit, 2, 0
162, 2, T_Scon, T_Scon_DRRR, 351.0, hit, 2, 0
163, 2, T_Scon, T_Scon_UGLG, 298.4, hit, 1, 0
164, 2, T_Sinc, T_Sinc_DGLG, 325.9, incorrect, 2, 1
165, 2, T_Scon, T_Scon_UGLG, 413.3, hit, 1, 0
166, 2, T_Scon, T_Scon_UGLG, 368.8, hit, 1, 0
167, 2, T_Scon, T_Scon_DRRR, 276.2, hit, 2, 0
168, 2, T_Scon, T_Scon_DRRR, 415.6, hit, 2, 0
169, 2, T_Scon, T_Scon_UGLG, 355.0, hit, 1, 0
170, 2, T_Scon, T_Scon_DRRR, 434.5, hit, 2, 0
171, 2, T_Scon, T_Scon_UGLG, 349.9, hit, 1, 0
172, 2, T_Sinc, T_Sinc_DGLG, 349.3, incorrect, 2, 1
173, 2, T_Scon, T_Scon_UGLG, 376.8, hit, 1, 0
174, 2, T_Scon, T_Scon_UGLG, 480.3, hit, 1, 0
175, 2, T_Scon, T_Scon_DRRR, 419.7, hit, 2, 0
176, 2, T_Sinc, T_Sinc_URRR, 387.1, hit, 2, 0
177, 2, T_Scon, T_Scon_DRRR, 338.6, hit, 2, 0
178, 2, T_Sinc, T_Sinc_DGLG, 405.9, hit, 1, 0
179, 2, T_Scon, T_Scon_DRRR, 329.4, hit, 2, 0
180, 2, T_Scon, T_Scon_DRRR, 300.8, hit, 2, 0
181, 2, T_Scon, T_Scon_DRRR, 436.1, hit, 2, 0
182, 2, T_Scon, T_Scon_DRRR, 379.5, hit, 2, 0
183, 2, T_Scon, T_Scon_DRRR, 374.9, hit, 2, 0
184, 2, T_Scon, T_Scon_UGLG, 378.3, hit, 1, 0
185, 2, T_Sinc, T_Sinc_URRR, 421.7, hit, 2, 0
186, 2, T_Scon, T_Scon_DRRR, 305.2, hit, 2, 0
187, 2, T_Scon, T_Scon_DRRR, 328.6, hit, 2, 0
188, 2, T_Sinc, T_Sinc_DGLG, 476.1, hit, 1, 0
189, 2, T_Scon, T_Scon_UGLG, 403.5, hit, 1, 0
190, 2, T_Scon, T_Scon_UGLG, 343.0, hit, 1, 0
191, 2, T_Sinc, T_Sinc_DGLG, 338.4, hit, 1, 0
192, 2, T_Scon, T_Scon_UGLG, 389.9, hit, 1, 0
193, 2, T_Scon, T_Scon_UGLG, 369.2, hit, 1, 0
194, 2, T_Sinc, T_Sinc_DGLG, 316.7, hit, 1, 0
195, 2, T_Scon, T_Scon_UGLG, 344.1, hit, 1, 0
196, 2, T_Scon, T_Scon_DRRR, 411.6, hit, 2, 0
197, 2, T_Scon, T_Scon_DRRR, 343.0, hit, 2, 0
198, 2, T_Scon, T_Scon_DRRR, 330.5, hit, 2, 0
199, 2, T_Sinc, T_Sinc_URRR, 405.9, hit, 2, 0
200, 2, T_Scon, T_Scon_UGLG, 353.4, hit, 1, 0
201, 2, T_Scon, T_Scon_UGLG, 344.8, hit, 1, 0
202, 2, T_Scon, T_Scon_UGLG, 372.1, hit, 1, 0
203, 2, T_Scon, T_Scon_DRRR, 331.6, hit, 2, 0
204, 2, T_Scon, T_Scon_UGLG, 371.0, hit, 1, 0
205, 2, T_Scon, T_Scon_DRRR, 254.5, hit, 2, 0
206, 2, T_Scon, T_Scon_UGLG, 313.9, hit, 1, 0
207, 2, T_Scon, T_Scon_DRRR, 273.4, hit, 2, 0
208, 2, T_Scon, T_Scon_DRRR, 348.8, hit, 2, 0
209, 2, T_Scon, T_Scon_DRRR, 396.3, hit, 2, 0
210, 2, T_Sinc, T_Sinc_URRR, 295.7, incorrect, 1, 1
211, 2, T_Scon, T_Scon_DRRR, 387.2, hit, 2, 0
212, 2, T_Scon, T_Scon_DRRR, 378.6, hit, 2, 0
213, 2, T_Scon, T_Scon_DRRR, 310.0, hit, 2, 0
214, 2, T_Scon, T_Scon_UGLG, 433.5, hit, 1, 0
215, 2, T_Scon, T_Scon_DRRR, 441.0, hit, 2, 0
216, 2, T_Sinc, T_Sinc_DGLG, 580.3, hit, 1, 0
217, 2, T_Scon, T_Scon_DRRR, 419.6, hit, 2, 0
218, 2, T_Scon, T_Scon_UGLG, 347.0, hit, 1, 0
219, 2, T_Scon, T_Scon_UGLG, 294.4, hit, 1, 0
220, 2, T_Sinc, T_Sinc_DGLG, 417.9, hit, 1, 0
221, 2, T_Scon, T_Scon_DRRR, 357.3, hit, 2, 0
222, 2, T_Scon, T_Scon_UGLG, 368.7, hit, 1, 0
223, 2, T_Scon, T_Scon_DRRR, 384.2, incorrect, 1, 1
224, 2, T_Scon, T_Scon_UGLG, 523.6, hit, 1, 0
225, 2, T_Scon, T_Scon_UGLG, 415.1, hit, 1, 0
226, 2, T_Scon, T_Scon_DRRR, 370.4, hit, 2, 0
227, 2, T_Scon, T_Scon_UGLG, 421.9, hit, 1, 0
228, 2, T_Scon, T_Scon_DRRR, 681.3, hit, 2, 2
229, 2, T_Scon, T_Scon_UGLG, 444.8, hit, 1, 0
230, 2, T_Scon, T_Scon_DRRR, 416.2, hit, 2, 0
231, 2, T_Scon, T_Scon_UGLG, 451.7, hit, 1, 0
232, 2, T_Scon, T_Scon_UGLG, 479.1, hit, 1, 0
233, 2, T_Sinc, T_Sinc_DGLG, 494.6, hit, 1, 0
234, 2, T_Scon, T_Scon_UGLG, 465.9, hit, 1, 0
235, 2, T_Scon, T_Scon_DRRR, 433.4, hit, 2, 0
236, 2, T_Sinc, T_Sinc_DGLG, 468.8, hit, 1, 0
237, 2, T_Sinc, T_Sinc_URRR, 444.3, hit, 2, 0
238, 2, T_Scon, T_Scon_UGLG, 447.7, hit, 1, 0
239, 2, T_Scon, T_Scon_UGLG, 615.2, hit, 1, 0
240, 2, T_Sinc, T_Sinc_DGLG, 426.6, hit, 1, 0
241, 2, T_Scon, T_Scon_UGLG, 422.1, hit, 1, 0
242, 2, T_Scon, T_Scon_DRRR, 497.5, hit, 2, 0
243, 2, T_Scon, T_Scon_UGLG, 416.9, hit, 1, 0
244, 2, T_Scon, T_Scon_DRRR, 460.4, hit, 2, 0
245, 2, T_Scon, T_Scon_DRRR, 463.8, hit, 2, 0
246, 2, T_Scon, T_Scon_UGLG, 475.3, hit, 1, 0
247, 2, T_Scon, T_Scon_UGLG, 466.6, hit, 1, 0
248, 2, T_Scon, T_Scon_UGLG, 438.1, hit, 1, 0
249, 2, T_Scon, T_Scon_DRRR, 393.5, hit, 2, 0
250, 2, T_Sinc, T_Sinc_DGLG, 509.0, hit, 1, 0
251, 2, T_Scon, T_Scon_DRRR, 408.4, hit, 2, 0
252, 2, T_Scon, T_Scon_UGLG, 411.9, hit, 1, 0
253, 2, T_Scon, T_Scon_UGLG, 531.1, hit, 1, 0
254, 2, T_Sinc, T_Sinc_URRR, 426.5, hit, 2, 0
255, 2, T_Scon, T_Scon_UGLG, 377.9, hit, 1, 0
256, 2, T_Scon, T_Scon_DRRR, 297.3, hit, 2, 0
257, 2, T_Scon, T_Scon_DRRR, 364.8, hit, 2, 0
258, 2, T_Scon, T_Scon_UGLG, 320.2, hit, 1, 0
259, 2, T_Scon, T_Scon_UGLG, 379.7, hit, 1, 0
260, 2, T_Scon, T_Scon_UGLG, 303.1, hit, 1, 0
261, 2, T_Sinc, T_Sinc_DGLG, 494.6, hit, 1, 0
262, 2, T_Scon, T_Scon_UGLG, 354.0, hit, 1, 0
263, 2, T_Scon, T_Scon_DRRR, 309.4, hit, 2, 0
264, 2, T_Sinc, T_Sinc_URRR, 388.8, hit, 2, 0
265, 2, T_Sinc, T_Sinc_DGLG, 368.3, hit, 1, 0
266, 2, T_Sinc, T_Sinc_URRR, 387.7, hit, 2, 0
267, 2, T_Sinc, T_Sinc_URRR, 443.1, hit, 2, 0
268, 2, T_Scon, T_Scon_DRRR, 402.6, hit, 2, 0
269, 2, T_Scon, T_Scon_DRRR, 398.1, hit, 2, 0
270, 2, T_Scon, T_Scon_DRRR, 341.5, hit, 2, 0
271, 2, T_Scon, T_Scon_DRRR, 333.0, hit, 2, 0
272, 2, T_Scon, T_Scon_DRRR, 328.4, hit, 2, 0
273, 2, T_Scon, T_Scon_DRRR, 327.8, hit, 2, 0
274, 2, T_Sinc, T_Sinc_URRR, 399.2, hit, 2, 0
275, 2, T_Sinc, T_Sinc_URRR, 318.7, hit, 2, 0
276, 2, T_Scon, T_Scon_DRRR, 366.1, hit, 2, 0
277, 2, T_Sinc, T_Sinc_URRR, 333.5, hit, 2, 0
278, 2, T_Scon, T_Scon_UGLG, 353.0, hit, 1, 0
279, 2, T_Sinc, T_Sinc_URRR, 392.5, hit, 2, 0
280, 2, T_Scon, T_Scon_UGLG, 339.9, hit, 1, 0
281, 2, T_Scon, T_Scon_DRRR, 379.3, hit, 2, 0
282, 2, T_Scon, T_Scon_DRRR, 398.8, hit, 2, 0
283, 2, T_Sinc, T_Sinc_DGLG, 414.2, hit, 1, 0
284, 2, T_Scon, T_Scon_DRRR, 449.6, hit, 2, 0
285, 2, T_Sinc, T_Sinc_URRR, 477.0, hit, 2, 0
286, 2, T_Scon, T_Scon_DRRR, 288.5, hit, 2, 0
287, 2, T_Scon, T_Scon_UGLG, 367.9, hit, 1, 0
288, 2, T_Scon, T_Scon_DRRR, 427.4, incorrect, 1, 1
289, 3, T_Scon, T_Scon_UGLG, 461.4, hit, 1, 0
290, 3, T_Scon, T_Scon_UGLG, 360.9, hit, 1, 0
291, 3, T_Scon, T_Scon_DRRR, 340.3, hit, 2, 0
292, 3, T_Scon, T_Scon_UGLG, 295.7, hit, 1, 0
293, 3, T_Scon, T_Scon_DRRR, 499.2, hit, 2, 0
294, 3, T_Scon, T_Scon_DRRR, 378.6, hit, 2, 0
295, 3, T_Sinc, T_Sinc_DGLG, 474.1, hit, 1, 0
296, 3, T_Scon, T_Scon_UGLG, 433.4, hit, 1, 0
297, 3, T_Scon, T_Scon_DRRR, 380.9, hit, 2, 0
298, 3, T_Scon, T_Scon_DRRR, 400.3, hit, 2, 0
299, 3, T_Scon, T_Scon_DRRR, 363.8, hit, 2, 0
300, 3, T_Scon, T_Scon_DRRR, 339.2, hit, 2, 0
301, 3, T_Scon, T_Scon_DRRR, 346.7, hit, 2, 0
302, 3, T_Sinc, T_Sinc_URRR, 422.1, hit, 2, 0
303, 3, T_Scon, T_Scon_DRRR, 373.6, hit, 2, 0
304, 3, T_Scon, T_Scon_UGLG, 377.0, hit, 1, 0
305, 3, T_Sinc, T_Sinc_URRR, 412.5, hit, 2, 0
306, 3, T_Scon, T_Scon_UGLG, 495.9, hit, 1, 0
307, 3, T_Scon, T_Scon_DRRR, 399.4, hit, 2, 0
308, 3, T_Scon, T_Scon_DRRR, 418.8, hit, 2, 0
309, 3, T_Scon, T_Scon_UGLG, 346.2, hit, 1, 0
310, 3, T_Sinc, T_Sinc_DGLG, 285.6, incorrect, 2, 1
311, 3, T_Scon, T_Scon_UGLG, 409.0, hit, 1, 0
312, 3, T_Sinc, T_Sinc_DGLG, 440.5, hit, 1, 0
313, 3, T_Scon, T_Scon_DRRR, 387.9, hit, 2, 0
314, 3, T_Sinc, T_Sinc_URRR, 423.4, hit, 2, 0
315, 3, T_Scon, T_Scon_DRRR, 346.8, hit, 2, 0
316, 3, T_Scon, T_Scon_UGLG, 314.3, hit, 1, 0
317, 3, T_Scon, T_Scon_DRRR, 325.8, hit, 2, 0
318, 3, T_Scon, T_Scon_UGLG, 549.2, hit, 1, 0
319, 3, T_Sinc, T_Sinc_DGLG, 460.6, hit, 1, 0
320, 3, T_Sinc, T_Sinc_DGLG, 520.0, hit, 1, 0
321, 3, T_Scon, T_Scon_UGLG, 399.4, hit, 1, 0
322, 3, T_Scon, T_Scon_UGLG, 338.9, hit, 1, 0
323, 3, T_Sinc, T_Sinc_DGLG, 394.3, hit, 1, 0
324, 3, T_Scon, T_Scon_DRRR, 373.8, hit, 2, 0
325, 3, T_Scon, T_Scon_DRRR, 469.0, hit, 2, 0
326, 3, T_Scon, T_Scon_DRRR, 416.3, hit, 2, 0
327, 3, T_Scon, T_Scon_DRRR, 379.8, hit, 2, 0
328, 3, T_Sinc, T_Sinc_DGLG, 423.2, hit, 1, 0
329, 3, T_Scon, T_Scon_DRRR, 482.7, incorrect, 1, 1
330, 3, T_Scon, T_Scon_DRRR, 366.1, hit, 2, 0
331, 3, T_Sinc, T_Sinc_URRR, 393.6, hit, 2, 0
332, 3, T_Scon, T_Scon_DRRR, 373.0, hit, 2, 0
333, 3, T_Scon, T_Scon_UGLG, 384.4, hit, 1, 0
334, 3, T_Scon, T_Scon_DRRR, 335.8, hit, 2, 0
335, 3, T_Sinc, T_Sinc_DGLG, 499.3, hit, 1, 0
336, 3, T_Sinc, T_Sinc_DGLG, 406.7, hit, 1, 0
337, 3, T_Sinc, T_Sinc_URRR, 378.2, hit, 2, 0
338, 3, T_Scon, T_Scon_UGLG, 393.6, hit, 1, 0
339, 3, T_Sinc, T_Sinc_URRR, 409.1, incorrect, 1, 1
340, 3, T_Scon, T_Scon_UGLG, 336.5, incorrect, 2, 1
341, 3, T_Scon, T_Scon_DRRR, 340.0, hit, 2, 0
342, 3, T_Scon, T_Scon_UGLG, 367.4, hit, 1, 0
343, 3, T_Scon, T_Scon_DRRR, 350.9, hit, 2, 0
344, 3, T_Scon, T_Scon_UGLG, 346.2, hit, 1, 0
345, 3, T_Scon, T_Scon_DRRR, 297.7, hit, 2, 0
346, 3, T_Scon, T_Scon_UGLG, 413.1, hit, 1, 0
347, 3, T_Scon, T_Scon_UGLG, 372.5, hit, 1, 0
348, 3, T_Scon, T_Scon_UGLG, 352.0, hit, 1, 0
349, 3, T_Scon, T_Scon_UGLG, 355.4, hit, 1, 0
350, 3, T_Scon, T_Scon_UGLG, 398.9, hit, 1, 0
351, 3, T_Scon, T_Scon_UGLG, 482.3, hit, 1, 0
352, 3, T_Scon, T_Scon_UGLG, 369.8, hit, 1, 0
353, 3, T_Scon, T_Scon_DRRR, 365.2, hit, 2, 0
354, 3, T_Scon, T_Scon_UGLG, 340.7, hit, 1, 0
355, 3, T_Scon, T_Scon_DRRR, 392.0, hit, 2, 0
356, 3, T_Sinc, T_Sinc_URRR, 467.5, hit, 2, 0
357, 3, T_Scon, T_Scon_DRRR, 394.9, hit, 2, 0
358, 3, T_Scon, T_Scon_UGLG, 302.4, hit, 1, 0
359, 3, T_Scon, T_Scon_UGLG, 353.8, hit, 1, 0
360, 3, T_Sinc, T_Sinc_DGLG, 325.3, hit, 1, 0
361, 3, T_Sinc, T_Sinc_URRR, 436.4, hit, 2, 0
362, 3, T_Scon, T_Scon_DRRR, 459.8, hit, 2, 0
363, 3, T_Scon, T_Scon_UGLG, 359.3, hit, 1, 0
364, 3, T_Scon, T_Scon_UGLG, 386.7, hit, 1, 0
365, 3, T_Scon, T_Scon_UGLG, 342.2, hit, 1, 0
366, 3, T_Scon, T_Scon_UGLG, 345.6, hit, 1, 0
367, 3, T_Scon, T_Scon_UGLG, 365.1, hit, 1, 0
368, 3, T_Scon, T_Scon_UGLG, 360.5, hit, 1, 0
369, 3, T_Scon, T_Scon_DRRR, 339.9, hit, 2, 0
370, 3, T_Scon, T_Scon_UGLG, 323.4, hit, 1, 0
371, 3, T_Scon, T_Scon_UGLG, 402.9, hit, 1, 0
372, 3, T_Sinc, T_Sinc_URRR, 422.3, hit, 2, 0
373, 3, T_Sinc, T_Sinc_DGLG, 369.6, hit, 1, 0
374, 3, T_Scon, T_Scon_DRRR, 541.1, hit, 2, 0
375, 3, T_Sinc, T_Sinc_URRR, 456.5, hit, 2, 0
376, 3, T_Scon, T_Scon_UGLG, 396.0, hit, 1, 0
377, 3, T_Scon, T_Scon_DRRR, 487.4, hit, 2, 0
378, 3, T_Sinc, T_Sinc_DGLG, 398.9, hit, 1, 0
379, 3, T_Scon, T_Scon_UGLG, 418.3, hit, 1, 0
380, 3, T_Scon, T_Scon_UGLG, 401.8, hit, 1, 0
381, 3, T_Sinc, T_Sinc_DGLG, 421.2, hit, 1, 0
382, 3, T_Sinc, T_Sinc_DGLG, 392.7, hit, 1, 0
383, 3, T_Sinc, T_Sinc_DGLG, 340.1, hit, 1, 0
384, 3, T_Scon, T_Scon_DRRR, 459.6, hit, 2, 0
385, 3, T_Scon, T_Scon_DRRR, 358.9, hit, 2, 0
386, 3, T_Scon, T_Scon_UGLG, 354.4, hit, 1, 0
387, 3, T_Sinc, T_Sinc_URRR, 373.8, hit, 2, 0
388, 3, T_Scon, T_Scon_DRRR, 385.3, hit, 2, 0
389, 3, T_Scon, T_Scon_UGLG, 372.7, hit, 1, 0
390, 3, T_Scon, T_Scon_UGLG, 408.2, hit, 1, 0
391, 3, T_Scon, T_Scon_UGLG, 403.6, hit, 1, 0
392, 3, T_Sinc, T_Sinc_URRR, 371.0, hit, 2, 0
393, 3, T_Scon, T_Scon_DRRR, 406.5, hit, 2, 0
394, 3, T_Scon, T_Scon_DRRR, 377.9, hit, 2, 0
395, 3, T_Scon, T_Scon_UGLG, 397.3, hit, 1, 0
396, 3, T_Scon, T_Scon_UGLG, 432.7, hit, 1, 0
397, 3, T_Scon, T_Scon_DRRR, 400.0, hit, 2, 0
398, 3, T_Sinc, T_Sinc_URRR, 387.4, hit, 2, 0
399, 3, T_Scon, T_Scon_DRRR, 298.9, hit, 2, 0
400, 3, T_Sinc, T_Sinc_DGLG, 358.2, hit, 1, 0
401, 3, T_Scon, T_Scon_DRRR, 409.6, hit, 2, 0
402, 3, T_Scon, T_Scon_DRRR, 333.1, hit, 2, 0
403, 3, T_Scon, T_Scon_UGLG, 376.5, hit, 1, 0
404, 3, T_Scon, T_Scon_UGLG, 348.0, hit, 1, 0
405, 3, T_Sinc, T_Sinc_DGLG, 347.4, incorrect, 2, 1
406, 3, T_Scon, T_Scon_UGLG, 374.9, hit, 1, 0
407, 3, T_Sinc, T_Sinc_DGLG, 374.3, hit, 1, 0
408, 3, T_Sinc, T_Sinc_URRR, 329.8, hit, 2, 0
409, 3, T_Scon, T_Scon_DRRR, 297.2, hit, 2, 0
410, 3, T_Sinc, T_Sinc_URRR, 324.7, hit, 2, 0
411, 3, T_Scon, T_Scon_DRRR, 344.1, hit, 2, 0
412, 3, T_Scon, T_Scon_DRRR, 331.6, hit, 2, 0
413, 3, T_Scon, T_Scon_UGLG, 299.0, hit, 1, 0
414, 3, T_Scon, T_Scon_DRRR, 582.5, hit, 2, 0
415, 3, T_Scon, T_Scon_UGLG, 453.8, hit, 1, 0
416, 3, T_Scon, T_Scon_DRRR, 381.3, hit, 2, 0
417, 3, T_Scon, T_Scon_DRRR, 356.7, hit, 2, 0
418, 3, T_Scon, T_Scon_DRRR, 372.1, hit, 2, 0
419, 3, T_Scon, T_Scon_UGLG, 379.6, hit, 1, 0
420, 3, T_Scon, T_Scon_DRRR, 407.0, hit, 2, 0
421, 3, T_Sinc, T_Sinc_URRR, 358.5, hit, 2, 0
422, 3, T_Scon, T_Scon_DRRR, 589.9, hit, 2, 0
423, 3, T_Scon, T_Scon_UGLG, 429.4, hit, 1, 0
424, 3, T_Scon, T_Scon_DRRR, 296.8, hit, 2, 0
425, 3, T_Sinc, T_Sinc_URRR, 560.3, hit, 2, 0
426, 3, T_Scon, T_Scon_DRRR, 371.6, hit, 2, 0
427, 3, T_Scon, T_Scon_DRRR, 323.1, hit, 2, 0
428, 3, T_Scon, T_Scon_UGLG, 390.5, hit, 1, 0
429, 3, T_Scon, T_Scon_UGLG, 394.0, hit, 1, 0
430, 3, T_Sinc, T_Sinc_URRR, 401.4, hit, 2, 0
431, 3, T_Scon, T_Scon_UGLG, 404.9, hit, 1, 0
432, 3, T_Scon, T_Scon_DRRR, 424.3, hit, 2, 0
433, 4, T_Sinc, T_Sinc_DGLG, 485.8, hit, 1, 0
434, 4, T_Sinc, T_Sinc_URRR, 337.2, hit, 2, 0
435, 4, T_Sinc, T_Sinc_URRR, 356.6, hit, 2, 0
436, 4, T_Sinc, T_Sinc_DGLG, 456.1, hit, 1, 0
437, 4, T_Sinc, T_Sinc_DGLG, 367.5, hit, 1, 0
438, 4, T_Sinc, T_Sinc_URRR, 387.0, hit, 2, 0
439, 4, T_Sinc, T_Sinc_DGLG, 382.5, hit, 1, 0
440, 4, T_Sinc, T_Sinc_DGLG, 433.8, hit, 1, 0
441, 4, T_Scon, T_Scon_UGLG, 357.3, hit, 1, 0
442, 4, T_Sinc, T_Sinc_DGLG, 376.7, hit, 1, 0
443, 4, T_Sinc, T_Sinc_DGLG, 364.1, hit, 1, 0
444, 4, T_Sinc, T_Sinc_URRR, 331.6, hit, 2, 0
445, 4, T_Sinc, T_Sinc_DGLG, 475.0, hit, 1, 0
446, 4, T_Sinc, T_Sinc_URRR, 574.5, hit, 2, 0
447, 4, T_Sinc, T_Sinc_DGLG, 490.0, hit, 1, 0
448, 4, T_Sinc, T_Sinc_URRR, 425.4, hit, 2, 0
449, 4, T_Sinc, T_Sinc_URRR, 500.7, hit, 2, 0
450, 4, T_Sinc, T_Sinc_URRR, 420.2, hit, 2, 0
451, 4, T_Sinc, T_Sinc_DGLG, 427.6, hit, 1, 0
452, 4, T_Scon, T_Scon_UGLG, 451.1, hit, 1, 0
453, 4, T_Sinc, T_Sinc_URRR, 450.5, hit, 2, 0
454, 4, T_Sinc, T_Sinc_DGLG, 414.0, hit, 1, 0
455, 4, T_Scon, T_Scon_UGLG, 529.4, hit, 1, 0
456, 4, T_Scon, T_Scon_DRRR, 364.9, hit, 2, 0
457, 4, T_Sinc, T_Sinc_DGLG, 536.3, hit, 1, 0
458, 4, T_Sinc, T_Sinc_URRR, 399.7, hit, 2, 0
459, 4, T_Scon, T_Scon_UGLG, 527.2, hit, 1, 0
460, 4, T_Sinc, T_Sinc_URRR, 518.6, hit, 2, 0
461, 4, T_Sinc, T_Sinc_DGLG, 542.0, hit, 1, 0
462, 4, T_Sinc, T_Sinc_URRR, 453.5, hit, 2, 0
463, 4, T_Scon, T_Scon_DRRR, 448.9, incorrect, 1, 1
464, 4, T_Sinc, T_Sinc_DGLG, 424.3, hit, 1, 0
465, 4, T_Sinc, T_Sinc_DGLG, 427.8, hit, 1, 0
466, 4, T_Sinc, T_Sinc_DGLG, 315.2, hit, 1, 0
467, 4, T_Sinc, T_Sinc_URRR, 350.7, hit, 2, 0
468, 4, T_Scon, T_Scon_DRRR, 298.1, hit, 2, 0
469, 4, T_Sinc, T_Sinc_URRR, 509.3, hit, 2, 0
470, 4, T_Sinc, T_Sinc_URRR, 332.7, hit, 2, 0
471, 4, T_Scon, T_Scon_DRRR, 336.1, hit, 2, 0
472, 4, T_Sinc, T_Sinc_URRR, 299.6, hit, 2, 0
473, 4, T_Sinc, T_Sinc_URRR, 319.0, hit, 2, 0
474, 4, T_Sinc, T_Sinc_DGLG, 526.5, hit, 1, 0
475, 4, T_Sinc, T_Sinc_URRR, 409.9, hit, 2, 0
476, 4, T_Sinc, T_Sinc_DGLG, 437.4, hit, 1, 0
477, 4, T_Sinc, T_Sinc_URRR, 312.8, hit, 2, 0
478, 4, T_Sinc, T_Sinc_URRR, 372.3, hit, 2, 0
479, 4, T_Sinc, T_Sinc_URRR, 339.7, hit, 2, 0
480, 4, T_Sinc, T_Sinc_DGLG, 499.1, hit, 1, 0
481, 4, T_Sinc, T_Sinc_DGLG, 498.5, hit, 1, 0
482, 4, T_Sinc, T_Sinc_DGLG, 425.9, hit, 1, 0
483, 4, T_Sinc, T_Sinc_URRR, 457.4, hit, 2, 0
484, 4, T_Sinc, T_Sinc_URRR, 380.8, hit, 2, 0
485, 4, T_Scon, T_Scon_DRRR, 360.3, hit, 2, 0
486, 4, T_Sinc, T_Sinc_DGLG, 467.7, hit, 1, 0
487, 4, T_Sinc, T_Sinc_DGLG, 415.2, hit, 1, 0
488, 4, T_Sinc, T_Sinc_DGLG, 298.6, hit, 1, 0
489, 4, T_Sinc, T_Sinc_DGLG, 302.1, hit, 1, 0
490, 4, T_Sinc, T_Sinc_DGLG, 425.5, hit, 1, 0
491, 4, T_Sinc, T_Sinc_DGLG, 389.0, hit, 1, 0
492, 4, T_Sinc, T_Sinc_URRR, 380.4, hit, 2, 0
493, 4, T_Sinc, T_Sinc_DGLG, 479.8, hit, 1, 0
494, 4, T_Sinc, T_Sinc_DGLG, 467.2, hit, 1, 0
495, 4, T_Scon, T_Scon_UGLG, 398.7, hit, 1, 0
496, 4, T_Scon, T_Scon_UGLG, 386.1, hit, 1, 0
497, 4, T_Scon, T_Scon_DRRR, 485.6, hit, 2, 0
498, 4, T_Sinc, T_Sinc_URRR, 381.0, hit, 2, 0
499, 4, T_Sinc, T_Sinc_DGLG, 464.5, hit, 1, 0
500, 4, T_Sinc, T_Sinc_DGLG, 747.9, hit, 1, 2
501, 4, T_Sinc, T_Sinc_DGLG, 467.3, hit, 1, 0
502, 4, T_Sinc, T_Sinc_URRR, 442.8, hit, 2, 0
503, 4, T_Sinc, T_Sinc_URRR, 354.1, hit, 2, 0
504, 4, T_Scon, T_Scon_DRRR, 333.6, hit, 2, 0
505, 4, T_Sinc, T_Sinc_DGLG, 476.8, hit, 1, 0
506, 4, T_Scon, T_Scon_DRRR, 392.3, hit, 2, 0
507, 4, T_Sinc, T_Sinc_URRR, 331.7, hit, 2, 0
508, 4, T_Sinc, T_Sinc_DGLG, 431.1, hit, 1, 0
509, 4, T_Sinc, T_Sinc_DGLG, 378.6, hit, 1, 0
510, 4, T_Scon, T_Scon_UGLG, 421.9, hit, 1, 0
511, 4, T_Sinc, T_Sinc_URRR, 325.4, hit, 2, 0
512, 4, T_Sinc, T_Sinc_DGLG, 416.8, hit, 1, 0
513, 4, T_Sinc, T_Sinc_URRR, 328.3, hit, 2, 0
514, 4, T_Sinc, T_Sinc_DGLG, 363.7, hit, 1, 0
515, 4, T_Sinc, T_Sinc_URRR, 363.2, hit, 2, 0
516, 4, T_Scon, T_Scon_DRRR, 358.6, hit, 2, 0
517, 4, T_Sinc, T_Sinc_URRR, 342.1, hit, 2, 0
518, 4, T_Sinc, T_Sinc_URRR, 321.5, hit, 2, 0
519, 4, T_Sinc, T_Sinc_URRR, 357.0, hit, 2, 0
520, 4, T_Sinc, T_Sinc_DGLG, 392.3, hit, 1, 0
521, 4, T_Sinc, T_Sinc_URRR, 371.8, hit, 2, 0
522, 4, T_Sinc, T_Sinc_DGLG, 475.2, hit, 1, 0
523, 4, T_Sinc, T_Sinc_DGLG, 386.7, hit, 1, 0
524, 4, T_Sinc, T_Sinc_URRR, 358.1, hit, 2, 0
525, 4, T_Scon, T_Scon_UGLG, 509.6, hit, 1, 0
526, 4, T_Sinc, T_Sinc_URRR, 361.0, hit, 2, 0
527, 4, T_Sinc, T_Sinc_URRR, 336.5, hit, 2, 0
528, 4, T_Sinc, T_Sinc_DGLG, 475.8, hit, 1, 0
529, 4, T_Scon, T_Scon_DRRR, 435.2, hit, 2, 0
530, 4, T_Sinc, T_Sinc_URRR, 406.7, hit, 2, 0
531, 4, T_Scon, T_Scon_UGLG, 462.1, hit, 1, 0
532, 4, T_Sinc, T_Sinc_URRR, 533.6, hit, 2, 0
533, 4, T_Scon, T_Scon_DRRR, 401.0, hit, 2, 0
534, 4, T_Scon, T_Scon_UGLG, 420.5, hit, 1, 0
535, 4, T_Scon, T_Scon_UGLG, 463.9, hit, 1, 0
536, 4, T_Scon, T_Scon_DRRR, 327.4, hit, 2, 0
537, 4, T_Sinc, T_Sinc_DGLG, 418.7, hit, 1, 0
538, 4, T_Scon, T_Scon_DRRR, 382.2, hit, 2, 0
539, 4, T_Sinc, T_Sinc_URRR, 417.6, hit, 2, 0
540, 4, T_Sinc, T_Sinc_URRR, 389.1, hit, 2, 0
541, 4, T_Sinc, T_Sinc_DGLG, 428.3, hit, 1, 0
542, 4, T_Sinc, T_Sinc_DGLG, 407.7, hit, 1, 0
543, 4, T_Sinc, T_Sinc_URRR, 319.1, hit, 2, 0
544, 4, T_Sinc, T_Sinc_URRR, 266.6, hit, 2, 0
545, 4, T_Scon, T_Scon_UGLG, 438.0, hit, 1, 0
546, 4, T_Sinc, T_Sinc_DGLG, 321.4, incorrect, 2, 1
547, 4, T_Sinc, T_Sinc_URRR, 280.9, hit, 2, 0
548, 4, T_Sinc, T_Sinc_URRR, 412.3, hit, 2, 0
549, 4, T_Scon, T_Scon_UGLG, 423.8, hit, 1, 0
550, 4, T_Sinc, T_Sinc_DGLG, 287.3, incorrect, 2, 1
551, 4, T_Sinc, T_Sinc_URRR, 458.7, hit, 2, 0
552, 4, T_Sinc, T_Sinc_DGLG, 398.2, hit, 1, 0
553, 4, T_Scon, T_Scon_DRRR, 441.6, hit, 2, 0
554, 4, T_Sinc, T_Sinc_DGLG, 501.0, hit, 1, 0
555, 4, T_Scon, T_Scon_DRRR, 736.4, hit, 2, 2
556, 4, T_Sinc, T_Sinc_DGLG, 443.8, hit, 1, 0
557, 4, T_Sinc, T_Sinc_DGLG, 551.3, hit, 1, 0
558, 4, T_Sinc, T_Sinc_URRR, 346.7, hit, 2, 0
559, 4, T_Scon, T_Scon_UGLG, 502.2, hit, 1, 0
560, 4, T_Sinc, T_Sinc_DGLG, 477.6, hit, 1, 0
561, 4, T_Scon, T_Scon_DRRR, 465.0, hit, 2, 0
562, 4, T_Sinc, T_Sinc_DGLG, 484.5, hit, 1, 0
563, 4, T_Scon, T_Scon_DRRR, 399.9, hit, 2, 0
564, 4, T_Scon, T_Scon_DRRR, 419.4, hit, 2, 0
565, 4, T_Scon, T_Scon_UGLG, 726.8, hit, 1, 2
566, 4, T_Sinc, T_Sinc_URRR, 442.3, hit, 2, 0
567, 4, T_Scon, T_Scon_UGLG, 625.7, incorrect, 2, 1
568, 4, T_Sinc, T_Sinc_URRR, 485.1, hit, 2, 0
569, 4, T_Sinc, T_Sinc_DGLG, 608.5, hit, 1, 0
570, 4, T_Scon, T_Scon_UGLG, 588.0, hit, 1, 0
571, 4, T_Sinc, T_Sinc_URRR, 479.4, hit, 2, 0
572, 4, T_Sinc, T_Sinc_URRR, 526.9, hit, 2, 0
573, 4, T_Sinc, T_Sinc_DGLG, 458.3, hit, 1, 0
574, 4, T_Sinc, T_Sinc_URRR, 841.8, hit, 2, 2
575, 4, T_Scon, T_Scon_UGLG, 565.2, hit, 1, 0
576, 4, T_Sinc, T_Sinc_URRR, 412.7, hit, 2, 0
577, 5, T_Sinc, T_Sinc_URRR, 452.7, hit, 2, 0
578, 5, T_Sinc, T_Sinc_DGLG, 368.2, hit, 1, 0
579, 5, T_Sinc, T_Sinc_URRR, 375.6, hit, 2, 0
580, 5, T_Sinc, T_Sinc_DGLG, 579.0, hit, 1, 0
581, 5, T_Scon, T_Scon_DRRR, 402.5, hit, 2, 0
582, 5, T_Scon, T_Scon_DRRR, 437.9, hit, 2, 0
583, 5, T_Sinc, T_Sinc_DGLG, 545.4, hit, 1, 0
584, 5, T_Scon, T_Scon_DRRR, 580.7, hit, 2, 0
585, 5, T_Scon, T_Scon_UGLG, 488.2, hit, 1, 0
586, 5, T_Sinc, T_Sinc_URRR, 499.6, hit, 2, 0
587, 5, T_Sinc, T_Sinc_URRR, 379.1, hit, 2, 0
588, 5, T_Sinc, T_Sinc_DGLG, 430.5, hit, 1, 0
589, 5, T_Sinc, T_Sinc_DGLG, 354.0, hit, 1, 0
590, 5, T_Sinc, T_Sinc_DGLG, 301.4, hit, 1, 0
591, 5, T_Scon, T_Scon_DRRR, 400.8, hit, 2, 0
592, 5, T_Sinc, T_Sinc_URRR, 396.3, hit, 2, 0
593, 5, T_Sinc, T_Sinc_DGLG, 387.7, hit, 1, 0
594, 5, T_Sinc, T_Sinc_URRR, 399.1, incorrect, 1, 1
595, 5, T_Sinc, T_Sinc_DGLG, 346.5, hit, 1, 0
596, 5, T_Sinc, T_Sinc_DGLG, 502.0, hit, 1, 0
597, 5, T_Scon, T_Scon_UGLG, 441.5, hit, 1, 0
598, 5, T_Scon, T_Scon_UGLG, 564.9, hit, 1, 0
599, 5, T_Sinc, T_Sinc_URRR, 432.3, hit, 2, 0
600, 5, T_Scon, T_Scon_UGLG, 579.8, hit, 1, 0
601, 5, T_Scon, T_Scon_UGLG, 583.2, hit, 1, 0
602, 5, T_Sinc, T_Sinc_URRR, 354.7, hit, 2, 0
603, 5, T_Sinc, T_Sinc_DGLG, 414.1, hit, 1, 0
604, 5, T_Sinc, T_Sinc_DGLG, 433.6, hit, 1, 0
605, 5, T_Sinc, T_Sinc_URRR, 565.0, hit, 2, 0
606, 5, T_Sinc, T_Sinc_DGLG, 604.4, hit, 1, 0
607, 5, T_Sinc, T_Sinc_URRR, 431.8, hit, 2, 0
608, 5, T_Scon, T_Scon_DRRR, 843.2, incorrect, 1, 1
609, 5, T_Sinc, T_Sinc_DGLG, 398.7, hit, 1, 0
610, 5, T_Sinc, T_Sinc_DGLG, 406.1, hit, 1, 0
611, 5, T_Sinc, T_Sinc_DGLG, 649.6, hit, 1, 2
612, 5, T_Sinc, T_Sinc_URRR, 521.0, hit, 2, 0
613, 5, T_Sinc, T_Sinc_URRR, 464.2, hit, 2, 0
614, 5, T_Sinc, T_Sinc_DGLG, 395.6, hit, 1, 0
615, 5, T_Sinc, T_Sinc_DGLG, 379.1, hit, 1, 0
616, 5, T_Sinc, T_Sinc_URRR, 454.5, hit, 2, 0
617, 5, T_Sinc, T_Sinc_URRR, 410.0, hit, 2, 0
618, 5, T_Scon, T_Scon_DRRR, 357.4, hit, 2, 0
619, 5, T_Scon, T_Scon_UGLG, 444.8, hit, 1, 0
620, 5, T_Sinc, T_Sinc_DGLG, 400.3, hit, 1, 0
621, 5, T_Sinc, T_Sinc_DGLG, 483.8, hit, 1, 0
622, 5, T_Scon, T_Scon_UGLG, 479.1, hit, 1, 0
623, 5, T_Sinc, T_Sinc_URRR, 354.5, hit, 2, 0
624, 5, T_Sinc, T_Sinc_URRR, 414.0, hit, 2, 0
625, 5, T_Sinc, T_Sinc_DGLG, 397.4, hit, 1, 0
626, 5, T_Sinc, T_Sinc_DGLG, 412.9, hit, 1, 0
627, 5, T_Sinc, T_Sinc_URRR, 384.3, hit, 2, 0
628, 5, T_Sinc, T_Sinc_URRR, 435.8, hit, 2, 0
629, 5, T_Scon, T_Scon_UGLG, 467.2, hit, 1, 0
630, 5, T_Sinc, T_Sinc_DGLG, 410.7, hit, 1, 0
631, 5, T_Sinc, T_Sinc_DGLG, 410.1, hit, 1, 0
632, 5, T_Scon, T_Scon_DRRR, 397.6, hit, 2, 0
633, 5, T_Sinc, T_Sinc_DGLG, 565.0, hit, 1, 0
634, 5, T_Sinc, T_Sinc_URRR, 476.5, hit, 2, 0
635, 5, T_Sinc, T_Sinc_URRR, 375.9, hit, 2, 0
636, 5, T_Sinc, T_Sinc_URRR, 339.4, hit, 2, 0
637, 5, T_Scon, T_Scon_DRRR, 526.7, hit, 2, 0
638, 5, T_Sinc, T_Sinc_URRR, 398.1, hit, 2, 0
639, 5, T_Sinc, T_Sinc_DGLG, 437.6, hit, 1, 0
640, 5, T_Scon, T_Scon_UGLG, 533.0, hit, 1, 0
641, 5, T_Sinc, T_Sinc_URRR, 380.5, hit, 2, 0
642, 5, T_Sinc, T_Sinc_URRR, 415.9, hit, 2, 0
643, 5, T_Sinc, T_Sinc_URRR, 307.4, hit, 2, 0
644, 5, T_Sinc, T_Sinc_URRR, 390.8, hit, 2, 0
645, 5, T_Sinc, T_Sinc_URRR, 290.3, hit, 2, 0
646, 5, T_Scon, T_Scon_DRRR, 509.6, hit, 2, 0
647, 5, T_Scon, T_Scon_UGLG, 425.1, hit, 1, 0
648, 5, T_Sinc, T_Sinc_URRR, 404.5, hit, 2, 0
649, 5, T_Sinc, T_Sinc_URRR, 431.8, hit, 2, 0
650, 5, T_Sinc, T_Sinc_URRR, 347.2, hit, 2, 0
651, 5, T_Sinc, T_Sinc_DGLG, 390.5, hit, 1, 0
652, 5, T_Sinc, T_Sinc_DGLG, 346.0, hit, 1, 0
653, 5, T_Sinc, T_Sinc_URRR, 325.4, hit, 2, 0
654, 5, T_Sinc, T_Sinc_DGLG, 484.9, hit, 1, 0
655, 5, T_Scon, T_Scon_UGLG, 400.3, hit, 1, 0
656, 5, T_Scon, T_Scon_UGLG, 379.8, hit, 1, 0
657, 5, T_Sinc, T_Sinc_URRR, 363.3, hit, 2, 0
658, 5, T_Sinc, T_Sinc_DGLG, 350.7, hit, 1, 0
659, 5, T_Sinc, T_Sinc_URRR, 406.1, hit, 2, 0
660, 5, T_Sinc, T_Sinc_URRR, 473.6, hit, 2, 0
661, 5, T_Sinc, T_Sinc_DGLG, 376.9, hit, 1, 0
662, 5, T_Sinc, T_Sinc_DGLG, 476.4, hit, 1, 0
663, 5, T_Sinc, T_Sinc_URRR, 363.8, hit, 2, 0
664, 5, T_Scon, T_Scon_UGLG, 555.3, hit, 1, 0
665, 5, T_Sinc, T_Sinc_DGLG, 446.7, hit, 1, 0
666, 5, T_Sinc, T_Sinc_DGLG, 362.2, hit, 1, 0
667, 5, T_Sinc, T_Sinc_DGLG, 373.6, hit, 1, 0
668, 5, T_Sinc, T_Sinc_DGLG, 361.1, hit, 1, 0
669, 5, T_Scon, T_Scon_UGLG, 404.5, hit, 1, 0
670, 5, T_Sinc, T_Sinc_DGLG, 415.9, hit, 1, 0
671, 5, T_Sinc, T_Sinc_URRR, 355.4, hit, 2, 0
672, 5, T_Scon, T_Scon_UGLG, 462.8, hit, 1, 0
673, 5, T_Sinc, T_Sinc_URRR, 402.2, hit, 2, 0
674, 5, T_Sinc, T_Sinc_URRR, 385.6, hit, 2, 0
675, 5, T_Scon, T_Scon_DRRR, 349.1, hit, 2, 0
676, 5, T_Scon, T_Scon_DRRR, 424.6, hit, 2, 0
677, 5, T_Sinc, T_Sinc_URRR, 604.0, hit, 2, 0
678, 5, T_Sinc, T_Sinc_URRR, 355.4, hit, 2, 0
679, 5, T_Sinc, T_Sinc_DGLG, 446.9, hit, 1, 0
680, 5, T_Sinc, T_Sinc_DGLG, 434.3, hit, 1, 0
681, 5, T_Sinc, T_Sinc_DGLG, 393.8, hit, 1, 0
682, 5, T_Scon, T_Scon_DRRR, 445.2, hit, 2, 0
683, 5, T_Sinc, T_Sinc_DGLG, 368.7, hit, 1, 0
684, 5, T_Scon, T_Scon_DRRR, 444.0, hit, 2, 0
685, 5, T_Sinc, T_Sinc_DGLG, 395.3, hit, 1, 0
686, 5, T_Scon, T_Scon_DRRR, 338.7, hit, 2, 0
687, 5, T_Sinc, T_Sinc_URRR, 426.1, hit, 2, 0
688, 5, T_Sinc, T_Sinc_DGLG, 469.6, hit, 1, 0
689, 5, T_Sinc, T_Sinc_URRR, 417.0, hit, 2, 0
690, 5, T_Sinc, T_Sinc_DGLG, 380.5, hit, 1, 0
691, 5, T_Sinc, T_Sinc_DGLG, 383.9, hit, 1, 0
692, 5, T_Sinc, T_Sinc_URRR, 423.4, hit, 2, 0
693, 5, T_Sinc, T_Sinc_DGLG, 414.7, hit, 1, 0
694, 5, T_Sinc, T_Sinc_URRR, 434.2, hit, 2, 0
695, 5, T_Scon, T_Scon_UGLG, 345.6, hit, 1, 0
696, 5, T_Scon, T_Scon_DRRR, 313.1, hit, 2, 0
697, 5, T_Scon, T_Scon_DRRR, 444.5, incorrect, 1, 1
698, 5, T_Sinc, T_Sinc_URRR, 423.9, hit, 2, 0
699, 5, T_Sinc, T_Sinc_DGLG, 463.4, hit, 1, 0
700, 5, T_Sinc, T_Sinc_URRR, 362.8, hit, 2, 0
701, 5, T_Sinc, T_Sinc_URRR, 338.3, hit, 2, 0
702, 5, T_Sinc, T_Sinc_URRR, 405.6, hit, 2, 0
703, 5, T_Sinc, T_Sinc_URRR, 313.1, hit, 2, 0
704, 5, T_Sinc, T_Sinc_URRR, 332.5, hit, 2, 0
705, 5, T_Scon, T_Scon_UGLG, 460.0, hit, 1, 0
706, 5, T_Sinc, T_Sinc_URRR, 455.4, hit, 2, 0
707, 5, T_Sinc, T_Sinc_DGLG, 426.9, hit, 1, 0
708, 5, T_Sinc, T_Sinc_URRR, 410.3, hit, 2, 0
709, 5, T_Sinc, T_Sinc_DGLG, 513.8, hit, 1, 0
710, 5, T_Sinc, T_Sinc_DGLG, 397.2, hit, 1, 0
711, 5, T_Sinc, T_Sinc_DGLG, 356.6, hit, 1, 0
712, 5, T_Sinc, T_Sinc_DGLG, 416.1, hit, 1, 0
713, 5, T_Sinc, T_Sinc_URRR, 395.5, hit, 2, 0
714, 5, T_Sinc, T_Sinc_DGLG, 354.9, hit, 1, 0
715, 5, T_Scon, T_Scon_DRRR, 406.4, hit, 2, 0
716, 5, T_Sinc, T_Sinc_URRR, 397.8, hit, 2, 0
717, 5, T_Scon, T_Scon_UGLG, 461.2, hit, 1, 0
718, 5, T_Sinc, T_Sinc_DGLG, 416.7, hit, 1, 0
719, 5, T_Scon, T_Scon_DRRR, 408.2, hit, 2, 0
720, 5, T_Sinc, T_Sinc_DGLG, 383.6, hit, 1, 0
721, 6, T_Scon, T_Scon_DRRR, 413.8, hit, 2, 0
722, 6, T_Sinc, T_Sinc_DGLG, 389.2, hit, 1, 0
723, 6, T_Scon, T_Scon_DRRR, 344.6, hit, 2, 0
724, 6, T_Sinc, T_Sinc_URRR, 392.1, hit, 2, 0
725, 6, T_Sinc, T_Sinc_DGLG, 403.5, hit, 1, 0
726, 6, T_Sinc, T_Sinc_URRR, 394.9, incorrect, 1, 1
727, 6, T_Sinc, T_Sinc_DGLG, 270.4, hit, 1, 0
728, 6, T_Scon, T_Scon_UGLG, 313.8, hit, 1, 0
729, 6, T_Scon, T_Scon_UGLG, 333.2, hit, 1, 0
730, 6, T_Scon, T_Scon_UGLG, 344.6, hit, 1, 0
731, 6, T_Scon, T_Scon_DRRR, 372.1, hit, 2, 0
732, 6, T_Sinc, T_Sinc_DGLG, 403.5, hit, 1, 0
733, 6, T_Sinc, T_Sinc_URRR, 391.0, hit, 2, 0
734, 6, T_Sinc, T_Sinc_URRR, 474.4, hit, 2, 0
735, 6, T_Scon, T_Scon_UGLG, 437.9, hit, 1, 0
736, 6, T_Sinc, T_Sinc_DGLG, 545.3, hit, 1, 0
737, 6, T_Sinc, T_Sinc_DGLG, 380.8, hit, 1, 0
738, 6, T_Scon, T_Scon_DRRR, 388.2, hit, 2, 0
739, 6, T_Sinc, T_Sinc_URRR, 503.5, hit, 2, 0
740, 6, T_Scon, T_Scon_UGLG, 595.0, hit, 1, 0
741, 6, T_Scon, T_Scon_DRRR, 342.4, hit, 2, 0
742, 6, T_Sinc, T_Sinc_DGLG, 445.9, hit, 1, 0
743, 6, T_Sinc, T_Sinc_URRR, 361.3, hit, 2, 0
744, 6, T_Sinc, T_Sinc_URRR, 492.8, hit, 2, 0
745, 6, T_Sinc, T_Sinc_DGLG, 440.2, hit, 1, 0
746, 6, T_Sinc, T_Sinc_DGLG, 403.7, hit, 1, 0
747, 6, T_Sinc, T_Sinc_URRR, 307.1, hit, 2, 0
748, 6, T_Scon, T_Scon_UGLG, 494.6, hit, 1, 0
749, 6, T_Sinc, T_Sinc_DGLG, 453.9, hit, 1, 0
750, 6, T_Sinc, T_Sinc_URRR, 341.4, hit, 2, 0
751, 6, T_Sinc, T_Sinc_DGLG, 332.8, hit, 1, 0
752, 6, T_Scon, T_Scon_UGLG, 444.3, hit, 1, 0
753, 6, T_Scon, T_Scon_DRRR, 423.7, hit, 2, 0
754, 6, T_Sinc, T_Sinc_DGLG, 415.1, hit, 1, 0
755, 6, T_Scon, T_Scon_DRRR, 594.6, hit, 2, 0
756, 6, T_Sinc, T_Sinc_DGLG, 478.1, hit, 1, 0
757, 6, T_Sinc, T_Sinc_DGLG, 501.2, hit, 1, 0
758, 6, T_Sinc, T_Sinc_DGLG, 340.6, hit, 1, 0
759, 6, T_Scon, T_Scon_UGLG, 368.1, hit, 1, 0
760, 6, T_Sinc, T_Sinc_DGLG, 323.5, hit, 1, 0
761, 6, T_Sinc, T_Sinc_DGLG, 335.0, hit, 1, 0
762, 6, T_Sinc, T_Sinc_DGLG, 302.4, hit, 1, 0
763, 6, T_Scon, T_Scon_UGLG, 361.9, hit, 1, 0
764, 6, T_Sinc, T_Sinc_DGLG, 253.2, hit, 1, 0
765, 6, T_Sinc, T_Sinc_URRR, 368.7, hit, 2, 0
766, 6, T_Scon, T_Scon_UGLG, 356.1, hit, 1, 0
767, 6, T_Sinc, T_Sinc_DGLG, 323.6, hit, 1, 0
768, 6, T_Sinc, T_Sinc_URRR, 367.0, hit, 2, 0
769, 6, T_Sinc, T_Sinc_DGLG, 330.4, hit, 1, 0
770, 6, T_Sinc, T_Sinc_URRR, 361.9, hit, 2, 0
771, 6, T_Sinc, T_Sinc_URRR, 361.3, hit, 2, 0
772, 6, T_Sinc, T_Sinc_URRR, 316.8, hit, 2, 0
773, 6, T_Sinc, T_Sinc_DGLG, 288.2, hit, 1, 0
774, 6, T_Sinc, T_Sinc_DGLG, 395.7, hit, 1, 0
775, 6, T_Sinc, T_Sinc_DGLG, 431.1, hit, 1, 0
776, 6, T_Sinc, T_Sinc_URRR, 414.5, hit, 2, 0
777, 6, T_Sinc, T_Sinc_URRR, 473.9, hit, 2, 0
778, 6, T_Sinc, T_Sinc_URRR, 485.4, hit, 2, 0
779, 6, T_Sinc, T_Sinc_URRR, 296.8, hit, 2, 0
780, 6, T_Sinc, T_Sinc_URRR, 340.3, hit, 2, 0
781, 6, T_Sinc, T_Sinc_URRR, 319.7, hit, 2, 0
782, 6, T_Sinc, T_Sinc_URRR, 339.2, hit, 2, 0
783, 6, T_Sinc, T_Sinc_DGLG, 418.5, hit, 1, 0
784, 6, T_Scon, T_Scon_UGLG, 514.0, hit, 1, 0
785, 6, T_Scon, T_Scon_DRRR, 353.4, hit, 2, 0
786, 6, T_Sinc, T_Sinc_URRR, 404.9, hit, 2, 0
787, 6, T_Sinc, T_Sinc_URRR, 360.3, hit, 2, 0
788, 6, T_Sinc, T_Sinc_DGLG, 435.8, hit, 1, 0
789, 6, T_Sinc, T_Sinc_DGLG, 383.2, hit, 1, 0
790, 6, T_Scon, T_Scon_DRRR, 506.6, hit, 2, 0
791, 6, T_Scon, T_Scon_UGLG, 494.1, hit, 1, 0
792, 6, T_Sinc, T_Sinc_URRR, 533.5, hit, 2, 0
793, 6, T_Sinc, T_Sinc_DGLG, 484.7, hit, 1, 0
794, 6, T_Scon, T_Scon_UGLG, 384.1, hit, 1, 0
795, 6, T_Sinc, T_Sinc_URRR, 331.6, hit, 2, 0
796, 6, T_Scon, T_Scon_UGLG, 355.0, hit, 1, 0
797, 6, T_Sinc, T_Sinc_URRR, 310.5, hit, 2, 0
798, 6, T_Sinc, T_Sinc_DGLG, 313.8, hit, 1, 0
799, 6, T_Sinc, T_Sinc_URRR, 313.3, hit, 2, 0
800, 6, T_Sinc, T_Sinc_URRR, 392.7, hit, 2, 0
801, 6, T_Sinc, T_Sinc_URRR, 340.2, hit, 2, 0
802, 6, T_Sinc, T_Sinc_DGLG, 327.6, hit, 1, 0
803, 6, T_Sinc, T_Sinc_DGLG, 431.0, hit, 1, 0
804, 6, T_Sinc, T_Sinc_URRR, 346.5, hit, 2, 0
805, 6, T_Sinc, T_Sinc_URRR, 349.9, hit, 2, 0
806, 6, T_Scon, T_Scon_UGLG, 389.4, hit, 1, 0
807, 6, T_Sinc, T_Sinc_DGLG, 196.8, incorrect, 2, 1
808, 6, T_Sinc, T_Sinc_URRR, 316.3, hit, 2, 0
809, 6, T_Scon, T_Scon_DRRR, 495.7, hit, 2, 0
810, 6, T_Sinc, T_Sinc_DGLG, 391.1, hit, 1, 0
811, 6, T_Sinc, T_Sinc_URRR, 398.5, hit, 2, 0
812, 6, T_Scon, T_Scon_DRRR, 370.0, incorrect, 1, 1
813, 6, T_Sinc, T_Sinc_DGLG, 501.4, hit, 1, 0
814, 6, T_Scon, T_Scon_DRRR, 476.8, hit, 2, 0
815, 6, T_Sinc, T_Sinc_URRR, 432.3, hit, 2, 0
816, 6, T_Sinc, T_Sinc_URRR, 419.8, hit, 2, 0
817, 6, T_Sinc, T_Sinc_URRR, 359.2, hit, 2, 0
818, 6, T_Sinc, T_Sinc_DGLG, 458.6, hit, 1, 0
819, 6, T_Scon, T_Scon_DRRR, 358.0, hit, 2, 0
820, 6, T_Scon, T_Scon_DRRR, 449.5, hit, 2, 0
821, 6, T_Scon, T_Scon_DRRR, 336.9, hit, 2, 0
822, 6, T_Sinc, T_Sinc_DGLG, 472.4, hit, 1, 0
823, 6, T_Sinc, T_Sinc_URRR, 407.8, hit, 2, 0
824, 6, T_Sinc, T_Sinc_DGLG, 459.3, hit, 1, 0
825, 6, T_Sinc, T_Sinc_DGLG, 550.7, hit, 1, 0
826, 6, T_Sinc, T_Sinc_DGLG, 326.1, hit, 1, 0
827, 6, T_Sinc, T_Sinc_DGLG, 337.6, hit, 1, 0
828, 6, T_Scon, T_Scon_UGLG, 421.1, hit, 1, 0
829, 6, T_Sinc, T_Sinc_URRR, 360.2, hit, 2, 0
830, 6, T_Sinc, T_Sinc_URRR, 339.6, hit, 2, 0
831, 6, T_Sinc, T_Sinc_DGLG, 407.1, hit, 1, 0
832, 6, T_Sinc, T_Sinc_URRR, 410.5, hit, 2, 0
833, 6, T_Sinc, T_Sinc_DGLG, 281.9, hit, 1, 0
834, 6, T_Sinc, T_Sinc_URRR, 317.3, hit, 2, 0
835, 6, T_Sinc, T_Sinc_URRR, 376.7, hit, 2, 0
836, 6, T_Sinc, T_Sinc_URRR, 404.2, hit, 2, 0
837, 6, T_Sinc, T_Sinc_DGLG, 463.6, hit, 1, 0
838, 6, T_Sinc, T_Sinc_DGLG, 411.1, hit, 1, 0
839, 6, T_Sinc, T_Sinc_DGLG, 334.5, hit, 1, 0
840, 6, T_Sinc, T_Sinc_URRR, 370.0, hit, 2, 0
841, 6, T_Sinc, T_Sinc_URRR, 393.4, hit, 2, 0
842, 6, T_Sinc, T_Sinc_DGLG, 408.9, hit, 1, 0
843, 6, T_Scon, T_Scon_UGLG, 380.3, hit, 1, 0
844, 6, T_Sinc, T_Sinc_DGLG, 311.8, hit, 1, 0
845, 6, T_Sinc, T_Sinc_DGLG, 335.2, hit, 1, 0
846, 6, T_Sinc, T_Sinc_URRR, 378.7, hit, 2, 0
847, 6, T_Scon, T_Scon_DRRR, 874.0, hit, 2, 2
848, 6, T_Sinc, T_Sinc_URRR, 317.4, hit, 2, 0
849, 6, T_Scon, T_Scon_DRRR, 312.9, hit, 2, 0
850, 6, T_Sinc, T_Sinc_URRR, 652.3, hit, 2, 2
851, 6, T_Sinc, T_Sinc_URRR, 391.8, hit, 2, 0
852, 6, T_Scon, T_Scon_DRRR, 315.3, hit, 2, 0
853, 6, T_Sinc, T_Sinc_URRR, 262.7, hit, 2, 0
854, 6, T_Sinc, T_Sinc_DGLG, 510.1, hit, 1, 0
855, 6, T_Sinc, T_Sinc_DGLG, 353.6, hit, 1, 0
856, 6, T_Scon, T_Scon_UGLG, 421.0, hit, 1, 0
857, 6, T_Sinc, T_Sinc_URRR, 544.4, hit, 2, 0
858, 6, T_Sinc, T_Sinc_URRR, 463.8, hit, 2, 0
859, 6, T_Sinc, T_Sinc_DGLG, 431.3, hit, 1, 0
860, 6, T_Sinc, T_Sinc_URRR, 406.7, hit, 2, 0
861, 6, T_Sinc, T_Sinc_DGLG, 418.1, hit, 1, 0
862, 6, T_Sinc, T_Sinc_DGLG, 473.6, hit, 1, 0
863, 6, T_Sinc, T_Sinc_URRR, 413.0, hit, 2, 0
864, 6, T_Sinc, T_Sinc_DGLG, 420.5, hit, 1, 0
865, 7, T_Scon, T_Scon_UGLG, 703.6, hit, 1, 2
866, 7, T_Scon, T_Scon_UGLG, 311.0, hit, 1, 0
867, 7, T_Sinc, T_Sinc_DGLG, 402.5, hit, 1, 0
868, 7, T_Scon, T_Scon_DRRR, 385.9, hit, 2, 0
869, 7, T_Scon, T_Scon_UGLG, 413.2, hit, 1, 0
870, 7, T_Scon, T_Scon_DRRR, 340.7, hit, 2, 0
871, 7, T_Scon, T_Scon_UGLG, 336.1, hit, 1, 0
872, 7, T_Scon, T_Scon_UGLG, 331.6, hit, 1, 0
873, 7, T_Scon, T_Scon_UGLG, 375.0, hit, 1, 0
874, 7, T_Scon, T_Scon_DRRR, 366.5, hit, 2, 0
875, 7, T_Scon, T_Scon_UGLG, 369.9, hit, 1, 0
876, 7, T_Scon, T_Scon_DRRR, 317.4, hit, 2, 0
877, 7, T_Sinc, T_Sinc_URRR, 372.8, hit, 2, 0
878, 7, T_Sinc, T_Sinc_URRR, 344.3, hit, 2, 0
879, 7, T_Scon, T_Scon_DRRR, 335.7, hit, 2, 0
880, 7, T_Sinc, T_Sinc_URRR, 339.2, hit, 2, 0
881, 7, T_Scon, T_Scon_UGLG, 514.6, hit, 1, 0
882, 7, T_Scon, T_Scon_DRRR, 589.9, hit, 2, 0
883, 7, T_Scon, T_Scon_UGLG, 421.4, hit, 1, 0
884, 7, T_Scon, T_Scon_UGLG, 424.8, hit, 1, 0
885, 7, T_Scon, T_Scon_UGLG, 332.3, hit, 1, 0
886, 7, T_Scon, T_Scon_UGLG, 343.7, hit, 1, 0
887, 7, T_Scon, T_Scon_DRRR, 307.2, hit, 2, 0
888, 7, T_Scon, T_Scon_DRRR, 350.6, hit, 2, 0
889, 7, T_Sinc, T_Sinc_DGLG, 482.0, hit, 1, 0
890, 7, T_Scon, T_Scon_UGLG, 353.4, hit, 1, 0
891, 7, T_Scon, T_Scon_DRRR, 412.9, hit, 2, 0
892, 7, T_Sinc, T_Sinc_DGLG, 448.3, hit, 1, 0
893, 7, T_Sinc, T_Sinc_DGLG, 283.8, incorrect, 2, 1
894, 7, T_Scon, T_Scon_DRRR, 467.2, incorrect, 1, 1
895, 7, T_Sinc, T_Sinc_DGLG, 298.7, hit, 1, 0
896, 7, T_Sinc, T_Sinc_DGLG, 318.1, hit, 1, 0
897, 7, T_Sinc, T_Sinc_URRR, 345.6, hit, 2, 0
898, 7, T_Scon, T_Scon_DRRR, 381.0, hit, 2, 0
899, 7, T_Sinc, T_Sinc_URRR, 344.4, hit, 2, 0
900, 7, T_Scon, T_Scon_DRRR, 395.9, hit, 2, 0
901, 7, T_Scon, T_Scon_UGLG, 587.1, hit, 1, 0
902, 7, T_Sinc, T_Sinc_URRR, 422.5, hit, 2, 0
903, 7, T_Scon, T_Scon_DRRR, 357.9, hit, 2, 0
904, 7, T_Scon, T_Scon_DRRR, 345.4, hit, 2, 0
905, 7, T_Sinc, T_Sinc_DGLG, 532.8, hit, 1, 0
906, 7, T_Sinc, T_Sinc_URRR, 536.2, hit, 2, 0
907, 7, T_Scon, T_Scon_UGLG, 351.7, hit, 1, 0
908, 7, T_Scon, T_Scon_UGLG, 371.0, hit, 1, 0
909, 7, T_Sinc, T_Sinc_URRR, 422.5, hit, 2, 0
910, 7, T_Scon, T_Scon_DRRR, 338.0, hit, 2, 0
911, 7, T_Scon, T_Scon_DRRR, 293.4, hit, 2, 0
912, 7, T_Scon, T_Scon_UGLG, 356.8, hit, 1, 0
913, 7, T_Scon, T_Scon_DRRR, 332.3, hit, 2, 0
914, 7, T_Scon, T_Scon_DRRR, 515.7, hit, 2, 0
915, 7, T_Scon, T_Scon_DRRR, 467.2, hit, 2, 0
916, 7, T_Scon, T_Scon_DRRR, 282.6, hit, 2, 0
917, 7, T_Scon, T_Scon_UGLG, 358.1, hit, 1, 0
918, 7, T_Scon, T_Scon_DRRR, 461.4, incorrect, 1, 1
919, 7, T_Scon, T_Scon_UGLG, 488.9, hit, 1, 0
920, 7, T_Scon, T_Scon_UGLG, 380.3, hit, 1, 0
921, 7, T_Scon, T_Scon_UGLG, 343.8, hit, 1, 0
922, 7, T_Sinc, T_Sinc_DGLG, 571.2, hit, 1, 0
923, 7, T_Scon, T_Scon_UGLG, 390.7, hit, 1, 0
924, 7, T_Scon, T_Scon_UGLG, 318.1, hit, 1, 0
925, 7, T_Scon, T_Scon_DRRR, 421.5, hit, 2, 0
926, 7, T_Scon, T_Scon_DRRR, 433.0, hit, 2, 0
927, 7, T_Scon, T_Scon_DRRR, 380.4, hit, 2, 0
928, 7, T_Sinc, T_Sinc_URRR, 487.9, hit, 2, 0
929, 7, T_Sinc, T_Sinc_URRR, 347.2, hit, 2, 0
930, 7, T_Sinc, T_Sinc_DGLG, 382.7, hit, 1, 0
931, 7, T_Sinc, T_Sinc_DGLG, 394.1, hit, 1, 0
932, 7, T_Sinc, T_Sinc_URRR, 425.6, hit, 2, 0
933, 7, T_Scon, T_Scon_UGLG, 417.0, hit, 1, 0
934, 7, T_Sinc, T_Sinc_DGLG, 628.5, hit, 1, 0
935, 7, T_Scon, T_Scon_UGLG, 404.0, hit, 1, 0
936, 7, T_Scon, T_Scon_UGLG, 323.4, hit, 1, 0
937, 7, T_Scon, T_Scon_DRRR, 390.5, hit, 2, 0
938, 7, T_Scon, T_Scon_DRRR, 293.9, hit, 2, 0
939, 7, T_Scon, T_Scon_DRRR, 249.4, hit, 2, 0
940, 7, T_Scon, T_Scon_UGLG, 304.8, hit, 1, 0
941, 7, T_Sinc, T_Sinc_URRR, 332.3, hit, 2, 0
942, 7, T_Scon, T_Scon_DRRR, 275.7, hit, 2, 0
943, 7, T_Scon, T_Scon_DRRR, 303.2, hit, 2, 0
944, 7, T_Scon, T_Scon_UGLG, 450.6, hit, 1, 0
945, 7, T_Scon, T_Scon_UGLG, 442.1, hit, 1, 0
946, 7, T_Scon, T_Scon_DRRR, 377.5, hit, 2, 0
947, 7, T_Scon, T_Scon_DRRR, 292.9, hit, 2, 0
948, 7, T_Scon, T_Scon_UGLG, 428.3, hit, 1, 0
949, 7, T_Scon, T_Scon_UGLG, 431.8, hit, 1, 0
950, 7, T_Scon, T_Scon_DRRR, 339.2, hit, 2, 0
951, 7, T_Sinc, T_Sinc_DGLG, 466.7, hit, 1, 0
952, 7, T_Scon, T_Scon_UGLG, 402.1, hit, 1, 0
953, 7, T_Scon, T_Scon_UGLG, 297.6, hit, 1, 0
954, 7, T_Scon, T_Scon_UGLG, 340.9, hit, 1, 0
955, 7, T_Scon, T_Scon_DRRR, 336.4, hit, 2, 0
956, 7, T_Scon, T_Scon_DRRR, 323.8, hit, 2, 0
957, 7, T_Scon, T_Scon_UGLG, 271.2, hit, 1, 0
958, 7, T_Sinc, T_Sinc_URRR, 354.7, hit, 2, 0
959, 7, T_Scon, T_Scon_UGLG, 526.1, hit, 1, 0
960, 7, T_Scon, T_Scon_UGLG, 345.6, hit, 1, 0
961, 7, T_Sinc, T_Sinc_DGLG, 433.0, hit, 1, 0
962, 7, T_Scon, T_Scon_UGLG, 348.5, hit, 1, 0
963, 7, T_Sinc, T_Sinc_URRR, 383.9, hit, 2, 0
964, 7, T_Scon, T_Scon_UGLG, 335.3, hit, 1, 0
965, 7, T_Scon, T_Scon_UGLG, 322.7, hit, 1, 0
966, 7, T_Scon, T_Scon_UGLG, 282.2, hit, 1, 0
967, 7, T_Scon, T_Scon_DRRR, 373.6, hit, 2, 0
968, 7, T_Scon, T_Scon_DRRR, 385.1, hit, 2, 0
969, 7, T_Scon, T_Scon_DRRR, 332.5, hit, 2, 0
970, 7, T_Scon, T_Scon_UGLG, 392.0, hit, 1, 0
971, 7, T_Scon, T_Scon_DRRR, 695.4, hit, 2, 2
972, 7, T_Scon, T_Scon_UGLG, 366.9, hit, 1, 0
973, 7, T_Scon, T_Scon_DRRR, 338.0, hit, 2, 0
974, 7, T_Scon, T_Scon_UGLG, 333.4, hit, 1, 0
975, 7, T_Scon, T_Scon_DRRR, 332.9, hit, 2, 0
976, 7, T_Sinc, T_Sinc_DGLG, 360.3, hit, 1, 0
977, 7, T_Scon, T_Scon_UGLG, 323.8, hit, 1, 0
978, 7, T_Sinc, T_Sinc_DGLG, 391.1, hit, 1, 0
979, 7, T_Scon, T_Scon_DRRR, 394.6, hit, 2, 0
980, 7, T_Scon, T_Scon_UGLG, 338.0, hit, 1, 0
981, 7, T_Sinc, T_Sinc_URRR, 349.5, hit, 2, 0
982, 7, T_Scon, T_Scon_UGLG, 448.9, hit, 1, 0
983, 7, T_Scon, T_Scon_UGLG, 332.4, hit, 1, 0
984, 7, T_Scon, T_Scon_DRRR, 347.8, hit, 2, 0
985, 7, T_Scon, T_Scon_DRRR, 343.3, hit, 2, 0
986, 7, T_Scon, T_Scon_DRRR, 282.7, hit, 2, 0
987, 7, T_Scon, T_Scon_DRRR, 282.1, hit, 2, 0
988, 7, T_Sinc, T_Sinc_URRR, 349.6, hit, 2, 0
989, 7, T_Scon, T_Scon_DRRR, 401.0, hit, 2, 0
990, 7, T_Sinc, T_Sinc_URRR, 356.4, hit, 2, 0
991, 7, T_Scon, T_Scon_UGLG, 399.8, hit, 1, 0
992, 7, T_Scon, T_Scon_DRRR, 291.3, hit, 2, 0
993, 7, T_Sinc, T_Sinc_DGLG, 390.7, hit, 1, 0
994, 7, T_Scon, T_Scon_DRRR, 386.2, hit, 2, 0
995, 7, T_Scon, T_Scon_DRRR, 341.6, hit, 2, 0
996, 7, T_Scon, T_Scon_UGLG, 449.1, hit, 1, 0
997, 7, T_Scon, T_Scon_DRRR, 492.5, hit, 2, 0
998, 7, T_Sinc, T_Sinc_DGLG, 367.9, hit, 1, 0
999, 7, T_Scon, T_Scon_UGLG, 419.3, hit, 1, 0
1000, 7, T_Scon, T_Scon_UGLG, 370.8, hit, 1, 0
1001, 7, T_Scon, T_Scon_DRRR, 378.2, hit, 2, 0
1002, 7, T_Sinc, T_Sinc_DGLG, 405.7, hit, 1, 0
1003, 7, T_Scon, T_Scon_UGLG, 369.1, hit, 1, 0
1004, 7, T_Scon, T_Scon_DRRR, 444.6, hit, 2, 0
1005, 7, T_Sinc, T_Sinc_URRR, 332.0, incorrect, 1, 1
1006, 7, T_Scon, T_Scon_DRRR, 407.5, hit, 2, 0
1007, 7, T_Scon, T_Scon_DRRR, 378.9, hit, 2, 0
1008, 7, T_Scon, T_Scon_UGLG, 438.3, hit, 1, 0
1009, 8, T_Scon, T_Scon_DRRR, 305.9, hit, 2, 0
1010, 8, T_Scon, T_Scon_UGLG, 321.3, hit, 1, 0
1011, 8, T_Scon, T_Scon_DRRR, 324.8, hit, 2, 0
1012, 8, T_Sinc, T_Sinc_URRR, 320.2, hit, 2, 0
1013, 8, T_Scon, T_Scon_UGLG, 747.7, hit, 1, 2
1014, 8, T_Scon, T_Scon_UGLG, 399.1, incorrect, 2, 1
1015, 8, T_Scon, T_Scon_DRRR, 386.6, hit, 2, 0
1016, 8, T_Scon, T_Scon_UGLG, 438.0, hit, 1, 0
1017, 8, T_Scon, T_Scon_UGLG, 305.4, hit, 1, 0
1018, 8, T_Sinc, T_Sinc_URRR, 320.8, incorrect, 1, 1
1019, 8, T_Scon, T_Scon_DRRR, 284.3, hit, 2, 0
1020, 8, T_Sinc, T_Sinc_URRR, 367.7, hit, 2, 0
1021, 8, T_Scon, T_Scon_DRRR, 307.1, hit, 2, 0
1022, 8, T_Sinc, T_Sinc_URRR, 270.6, hit, 2, 0
1023, 8, T_Sinc, T_Sinc_DGLG, 282.1, hit, 1, 0
1024, 8, T_Scon, T_Scon_DRRR, 413.5, hit, 2, 0
1025, 8, T_Scon, T_Scon_UGLG, 413.0, hit, 1, 0
1026, 8, T_Scon, T_Scon_DRRR, 380.4, hit, 2, 0
1027, 8, T_Scon, T_Scon_UGLG, 359.7, hit, 1, 0
1028, 8, T_Scon, T_Scon_DRRR, 411.2, hit, 2, 0
1029, 8, T_Scon, T_Scon_DRRR, 290.6, hit, 2, 0
1030, 8, T_Scon, T_Scon_DRRR, 310.1, hit, 2, 0
1031, 8, T_Sinc, T_Sinc_URRR, 441.5, hit, 2, 0
1032, 8, T_Scon, T_Scon_UGLG, 477.0, hit, 1, 0
1033, 8, T_Scon, T_Scon_UGLG, 640.4, hit, 1, 2
1034, 8, T_Scon, T_Scon_UGLG, 319.9, hit, 1, 0
1035, 8, T_Scon, T_Scon_DRRR, 435.2, hit, 2, 0
1036, 8, T_Sinc, T_Sinc_URRR, 470.7, hit, 2, 0
1037, 8, T_Scon, T_Scon_UGLG, 362.1, hit, 1, 0
1038, 8, T_Scon, T_Scon_DRRR, 373.6, hit, 2, 0
1039, 8, T_Scon, T_Scon_UGLG, 385.1, hit, 1, 0
1040, 8, T_Scon, T_Scon_UGLG, 380.5, hit, 1, 0
1041, 8, T_Sinc, T_Sinc_DGLG, 471.9, hit, 1, 0
1042, 8, T_Scon, T_Scon_DRRR, 307.4, hit, 2, 0
1043, 8, T_Sinc, T_Sinc_DGLG, 362.8, hit, 1, 0
1044, 8, T_Scon, T_Scon_DRRR, 358.2, hit, 2, 0
1045, 8, T_Scon, T_Scon_UGLG, 521.4, hit, 1, 0
1046, 8, T_Scon, T_Scon_UGLG, 352.8, hit, 1, 0
1047, 8, T_Sinc, T_Sinc_DGLG, 396.3, hit, 1, 0
1048, 8, T_Scon, T_Scon_UGLG, 335.7, hit, 1, 0
1049, 8, T_Scon, T_Scon_DRRR, 427.2, hit, 2, 0
1050, 8, T_Scon, T_Scon_UGLG, 378.5, hit, 1, 0
1051, 8, T_Sinc, T_Sinc_URRR, 430.0, hit, 2, 0
1052, 8, T_Scon, T_Scon_UGLG, 445.4, hit, 1, 0
1053, 8, T_Scon, T_Scon_UGLG, 400.9, hit, 1, 0
1054, 8, T_Scon, T_Scon_DRRR, 336.3, hit, 2, 0
1055, 8, T_Scon, T_Scon_DRRR, 383.8, hit, 2, 0
1056, 8, T_Sinc, T_Sinc_DGLG, 455.2, hit, 1, 0
1057, 8, T_Scon, T_Scon_UGLG, 346.6, hit, 1, 0
1058, 8, T_Sinc, T_Sinc_URRR, 486.1, hit, 2, 0
1059, 8, T_Scon, T_Scon_DRRR, 277.6, hit, 2, 0
1060, 8, T_Scon, T_Scon_UGLG, 345.0, hit, 1, 0
1061, 8, T_Scon, T_Scon_UGLG, 344.3, hit, 1, 0
1062, 8, T_Scon, T_Scon_DRRR, 347.8, hit, 2, 0
1063, 8, T_Scon, T_Scon_DRRR, 279.2, hit, 2, 0
1064, 8, T_Scon, T_Scon_UGLG, 426.7, hit, 1, 0
1065, 8, T_Scon, T_Scon_DRRR, 346.1, hit, 2, 0
1066, 8, T_Scon, T_Scon_UGLG, 405.6, hit, 1, 0
1067, 8, T_Scon, T_Scon_DRRR, 381.0, hit, 2, 0
1068, 8, T_Scon, T_Scon_DRRR, 320.4, hit, 2, 0
1069, 8, T_Scon, T_Scon_DRRR, 447.9, hit, 2, 0
1070, 8, T_Scon, T_Scon_UGLG, 475.4, hit, 1, 0
1071, 8, T_Sinc, T_Sinc_DGLG, 518.8, hit, 1, 0
1072, 8, T_Sinc, T_Sinc_URRR, 542.2, hit, 2, 0
1073, 8, T_Scon, T_Scon_UGLG, 413.6, hit, 1, 0
1074, 8, T_Scon, T_Scon_UGLG, 617.0, hit, 1, 0
1075, 8, T_Sinc, T_Sinc_DGLG, 396.5, hit, 1, 0
1076, 8, T_Scon, T_Scon_UGLG, 420.0, hit, 1, 0
1077, 8, T_Scon, T_Scon_UGLG, 399.4, hit, 1, 0
1078, 8, T_Sinc, T_Sinc_DGLG, 382.8, hit, 1, 0
1079, 8, T_Scon, T_Scon_DRRR, 326.3, hit, 2, 0
1080, 8, T_Sinc, T_Sinc_DGLG, 393.7, hit, 1, 0
1081, 8, T_Sinc, T_Sinc_URRR, 416.9, hit, 2, 0
1082, 8, T_Scon, T_Scon_UGLG, 388.3, hit, 1, 0
1083, 8, T_Scon, T_Scon_UGLG, 539.7, hit, 1, 0
1084, 8, T_Scon, T_Scon_DRRR, 343.2, hit, 2, 0
1085, 8, T_Scon, T_Scon_UGLG, 538.6, hit, 1, 0
1086, 8, T_Scon, T_Scon_UGLG, 334.1, hit, 1, 0
1087, 8, T_Scon, T_Scon_DRRR, 425.5, hit, 2, 0
1088, 8, T_Scon, T_Scon_UGLG, 513.0, hit, 1, 0
1089, 8, T_Scon, T_Scon_UGLG, 336.4, hit, 1, 0
1090, 8, T_Scon, T_Scon_DRRR, 455.8, incorrect, 1, 1
1091, 8, T_Scon, T_Scon_UGLG, 287.3, incorrect, 2, 1
1092, 8, T_Sinc, T_Sinc_URRR, 418.7, hit, 2, 0
1093, 8, T_Scon, T_Scon_UGLG, 358.1, hit, 1, 0
1094, 8, T_Scon, T_Scon_DRRR, 433.6, hit, 2, 0
1095, 8, T_Scon, T_Scon_UGLG, 421.0, hit, 1, 0
1096, 8, T_Scon, T_Scon_DRRR, 404.5, hit, 2, 0
1097, 8, T_Scon, T_Scon_DRRR, 423.9, hit, 2, 0
1098, 8, T_Scon, T_Scon_UGLG, 335.4, hit, 1, 0
1099, 8, T_Scon, T_Scon_UGLG, 334.8, hit, 1, 0
1100, 8, T_Sinc, T_Sinc_URRR, 370.1, hit, 2, 0
1101, 8, T_Sinc, T_Sinc_DGLG, 477.6, hit, 1, 0
1102, 8, T_Scon, T_Scon_UGLG, 341.0, hit, 1, 0
1103, 8, T_Scon, T_Scon_DRRR, 396.5, hit, 2, 0
1104, 8, T_Sinc, T_Sinc_DGLG, 375.9, incorrect, 2, 1
1105, 8, T_Sinc, T_Sinc_DGLG, 475.4, hit, 1, 0
1106, 8, T_Sinc, T_Sinc_DGLG, 366.8, hit, 1, 0
1107, 8, T_Scon, T_Scon_DRRR, 398.3, hit, 2, 0
1108, 8, T_Scon, T_Scon_DRRR, 373.7, hit, 2, 0
1109, 8, T_Scon, T_Scon_DRRR, 361.2, hit, 2, 0
1110, 8, T_Scon, T_Scon_DRRR, 332.6, hit, 2, 0
1111, 8, T_Scon, T_Scon_DRRR, 432.1, hit, 2, 0
1112, 8, T_Scon, T_Scon_DRRR, 267.5, hit, 2, 0
1113, 8, T_Scon, T_Scon_DRRR, 263.0, hit, 2, 0
1114, 8, T_Scon, T_Scon_UGLG, 418.3, hit, 1, 0
1115, 8, T_Scon, T_Scon_UGLG, 361.8, hit, 1, 0
1116, 8, T_Sinc, T_Sinc_DGLG, 485.2, hit, 1, 0
1117, 8, T_Scon, T_Scon_DRRR, 404.5, incorrect, 1, 1
1118, 8, T_Scon, T_Scon_DRRR, 431.9, hit, 2, 0
1119, 8, T_Scon, T_Scon_UGLG, 347.2, hit, 1, 0
1120, 8, T_Scon, T_Scon_DRRR, 526.7, hit, 2, 0
1121, 8, T_Scon, T_Scon_DRRR, 398.1, hit, 2, 0
1122, 8, T_Scon, T_Scon_UGLG, 353.6, hit, 1, 0
1123, 8, T_Scon, T_Scon_UGLG, 357.0, hit, 1, 0
1124, 8, T_Sinc, T_Sinc_DGLG, 388.4, hit, 1, 0
1125, 8, T_Scon, T_Scon_DRRR, 415.9, hit, 2, 0
1126, 8, T_Scon, T_Scon_DRRR, 323.4, hit, 2, 0
1127, 8, T_Scon, T_Scon_DRRR, 334.7, hit, 2, 0
1128, 8, T_Scon, T_Scon_UGLG, 438.1, hit, 1, 0
1129, 8, T_Sinc, T_Sinc_URRR, 453.6, hit, 2, 0
1130, 8, T_Scon, T_Scon_DRRR, 329.0, hit, 2, 0
1131, 8, T_Sinc, T_Sinc_URRR, 380.5, hit, 2, 0
1132, 8, T_Scon, T_Scon_DRRR, 291.9, hit, 2, 0
1133, 8, T_Sinc, T_Sinc_DGLG, 359.4, hit, 1, 0
1134, 8, T_Sinc, T_Sinc_URRR, 482.8, hit, 2, 0
1135, 8, T_Scon, T_Scon_UGLG, 386.3, hit, 1, 0
1136, 8, T_Scon, T_Scon_DRRR, 429.7, hit, 2, 0
1137, 8, T_Scon, T_Scon_DRRR, 385.1, hit, 2, 0
1138, 8, T_Scon, T_Scon_UGLG, 420.5, hit, 1, 0
1139, 8, T_Sinc, T_Sinc_URRR, 440.0, hit, 2, 0
1140, 8, T_Scon, T_Scon_DRRR, 539.4, hit, 2, 0
1141, 8, T_Scon, T_Scon_DRRR, 274.9, hit, 2, 0
1142, 8, T_Scon, T_Scon_UGLG, 390.3, hit, 1, 0
1143, 8, T_Scon, T_Scon_DRRR, 389.7, hit, 2, 0
1144, 8, T_Scon, T_Scon_UGLG, 385.2, hit, 1, 0
1145, 8, T_Sinc, T_Sinc_URRR, 400.7, hit, 2, 0
1146, 8, T_Sinc, T_Sinc_DGLG, 420.0, incorrect, 2, 1
1147, 8, T_Scon, T_Scon_UGLG, 503.4, hit, 1, 0
1148, 8, T_Sinc, T_Sinc_DGLG, 398.9, hit, 1, 0
1149, 8, T_Scon, T_Scon_UGLG, 286.4, hit, 1, 0
1150, 8, T_Scon, T_Scon_DRRR, 401.8, hit, 2, 0
1151, 8, T_Sinc, T_Sinc_URRR, 437.2, hit, 2, 0
1152, 8, T_Scon, T_Scon_UGLG, 408.7, hit, 1, 0
1153, 9, T_Scon, T_Scon_DRRR, 419.1, hit, 2, 0
1154, 9, T_Scon, T_Scon_UGLG, 346.4, hit, 1, 0
1155, 9, T_Scon, T_Scon_UGLG, 357.9, hit, 1, 0
1156, 9, T_Scon, T_Scon_UGLG, 333.3, hit, 1, 0
1157, 9, T_Scon, T_Scon_DRRR, 332.8, hit, 2, 0
1158, 9, T_Scon, T_Scon_UGLG, 532.2, hit, 1, 0
1159, 9, T_Sinc, T_Sinc_URRR, 343.7, incorrect, 1, 1
1160, 9, T_Scon, T_Scon_UGLG, 331.1, hit, 1, 0
1161, 9, T_Scon, T_Scon_UGLG, 358.5, hit, 1, 0
1162, 9, T_Scon, T_Scon_UGLG, 322.0, hit, 1, 0
1163, 9, T_Sinc, T_Sinc_URRR, 353.4, hit, 2, 0
1164, 9, T_Sinc, T_Sinc_URRR, 424.8, hit, 2, 0
1165, 9, T_Sinc, T_Sinc_DGLG, 364.3, hit, 1, 0
1166, 9, T_Scon, T_Scon_DRRR, 439.7, hit, 2, 0
1167, 9, T_Scon, T_Scon_DRRR, 499.1, hit, 2, 0
1168, 9, T_Scon, T_Scon_DRRR, 446.6, hit, 2, 0
1169, 9, T_Sinc, T_Sinc_URRR, 638.0, incorrect, 1, 1
1170, 9, T_Scon, T_Scon_DRRR, 393.5, hit, 2, 0
1171, 9, T_Scon, T_Scon_UGLG, 436.9, hit, 1, 0
1172, 9, T_Scon, T_Scon_DRRR, 456.4, hit, 2, 0
1173, 9, T_Sinc, T_Sinc_URRR, 403.8, hit, 2, 0
1174, 9, T_Scon, T_Scon_UGLG, 423.2, hit, 1, 0
1175, 9, T_Scon, T_Scon_DRRR, 334.6, hit, 2, 0
1176, 9, T_Sinc, T_Sinc_DGLG, 530.1, hit, 1, 0
1177, 9, T_Sinc, T_Sinc_DGLG, 353.5, hit, 1, 0
1178, 9, T_Scon, T_Scon_DRRR, 429.0, incorrect, 1, 1
1179, 9, T_Scon, T_Scon_DRRR, 444.4, hit, 2, 0
1180, 9, T_Scon, T_Scon_DRRR, 415.9, hit, 2, 0
1181, 9, T_Sinc, T_Sinc_DGLG, 435.2, hit, 1, 0
1182, 9, T_Sinc, T_Sinc_DGLG, 294.7, hit, 1, 0
1183, 9, T_Scon, T_Scon_UGLG, 374.1, hit, 1, 0
1184, 9, T_Scon, T_Scon_DRRR, 389.5, hit, 2, 0
1185, 9, T_Scon, T_Scon_UGLG, 417.0, hit, 1, 0
1186, 9, T_Scon, T_Scon_UGLG, 372.4, hit, 1, 0
1187, 9, T_Scon, T_Scon_DRRR, 355.9, hit, 2, 0
1188, 9, T_Scon, T_Scon_DRRR, 419.3, hit, 2, 0
1189, 9, T_Sinc, T_Sinc_DGLG, 430.5, hit, 1, 0
1190, 9, T_Sinc, T_Sinc_DGLG, 313.9, hit, 1, 0
1191, 9, T_Sinc, T_Sinc_DGLG, 269.3, hit, 1, 0
1192, 9, T_Scon, T_Scon_DRRR, 388.8, hit, 2, 0
1193, 9, T_Scon, T_Scon_UGLG, 328.2, hit, 1, 0
1194, 9, T_Scon, T_Scon_UGLG, 355.7, hit, 1, 0
1195, 9, T_Sinc, T_Sinc_DGLG, 319.1, hit, 1, 0
1196, 9, T_Scon, T_Scon_UGLG, 378.6, hit, 1, 0
1197, 9, T_Scon, T_Scon_DRRR, 354.0, hit, 2, 0
1198, 9, T_Sinc, T_Sinc_URRR, 317.5, hit, 2, 0
1199, 9, T_Scon, T_Scon_UGLG, 320.9, hit, 1, 0
1200, 9, T_Scon, T_Scon_UGLG, 372.4, hit, 1, 0
1201, 9, T_Scon, T_Scon_DRRR, 351.8, hit, 2, 0
1202, 9, T_Sinc, T_Sinc_DGLG, 451.3, hit, 1, 0
1203, 9, T_Sinc, T_Sinc_DGLG, 398.7, hit, 1, 0
1204, 9, T_Sinc, T_Sinc_DGLG, 346.1, hit, 1, 0
1205, 9, T_Scon, T_Scon_UGLG, 433.5, hit, 1, 0
1206, 9, T_Scon, T_Scon_UGLG, 416.9, hit, 1, 0
1207, 9, T_Scon, T_Scon_UGLG, 284.4, hit, 1, 0
1208, 9, T_Scon, T_Scon_UGLG, 299.8, hit, 1, 0
1209, 9, T_Scon, T_Scon_DRRR, 359.3, hit, 2, 0
1210, 9, T_Scon, T_Scon_DRRR, 318.7, hit, 2, 0
1211, 9, T_Sinc, T_Sinc_DGLG, 454.2, hit, 1, 0
1212, 9, T_Scon, T_Scon_DRRR, 357.6, hit, 2, 0
1213, 9, T_Scon, T_Scon_UGLG, 401.0, hit, 1, 0
1214, 9, T_Scon, T_Scon_DRRR, 456.4, hit, 2, 0
1215, 9, T_Scon, T_Scon_DRRR, 511.9, hit, 2, 0
1216, 9, T_Scon, T_Scon_UGLG, 295.3, hit, 1, 0
1217, 9, T_Scon, T_Scon_UGLG, 378.8, hit, 1, 0
1218, 9, T_Scon, T_Scon_UGLG, 286.2, hit, 1, 0
1219, 9, T_Sinc, T_Sinc_DGLG, 449.7, hit, 1, 0
1220, 9, T_Scon, T_Scon_DRRR, 429.1, hit, 2, 0
1221, 9, T_Scon, T_Scon_UGLG, 368.6, hit, 1, 0
1222, 9, T_Scon, T_Scon_UGLG, 324.0, hit, 1, 0
1223, 9, T_Scon, T_Scon_DRRR, 387.4, hit, 2, 0
1224, 9, T_Scon, T_Scon_UGLG, 358.8, hit, 1, 0
1225, 9, T_Sinc, T_Sinc_DGLG, 422.1, hit, 1, 0
1226, 9, T_Sinc, T_Sinc_URRR, 357.5, hit, 2, 0
1227, 9, T_Scon, T_Scon_DRRR, 412.9, hit, 2, 0
1228, 9, T_Scon, T_Scon_DRRR, 380.3, hit, 2, 0
1229, 9, T_Sinc, T_Sinc_URRR, 343.7, hit, 2, 0
1230, 9, T_Sinc, T_Sinc_URRR, 323.2, hit, 2, 0
1231, 9, T_Scon, T_Scon_DRRR, 342.6, hit, 2, 0
1232, 9, T_Scon, T_Scon_UGLG, 402.1, hit, 1, 0
1233, 9, T_Scon, T_Scon_DRRR, 373.5, hit, 2, 0
1234, 9, T_Sinc, T_Sinc_DGLG, 456.9, hit, 1, 0
1235, 9, T_Scon, T_Scon_UGLG, 360.4, hit, 1, 0
1236, 9, T_Sinc, T_Sinc_URRR, 419.8, hit, 2, 0
1237, 9, T_Sinc, T_Sinc_DGLG, 383.3, incorrect, 2, 1
1238, 9, T_Sinc, T_Sinc_URRR, 462.8, hit, 2, 0
1239, 9, T_Scon, T_Scon_UGLG, 386.1, hit, 1, 0
1240, 9, T_Scon, T_Scon_DRRR, 405.5, hit, 2, 0
1241, 9, T_Scon, T_Scon_DRRR, 365.0, hit, 2, 0
1242, 9, T_Sinc, T_Sinc_URRR, 480.4, hit, 2, 0
1243, 9, T_Scon, T_Scon_DRRR, 363.9, hit, 2, 0
1244, 9, T_Scon, T_Scon_DRRR, 283.3, hit, 2, 0
1245, 9, T_Scon, T_Scon_UGLG, 382.8, hit, 1, 0
1246, 9, T_Sinc, T_Sinc_URRR, 410.2, hit, 2, 0
1247, 9, T_Scon, T_Scon_DRRR, 421.7, incorrect, 1, 1
1248, 9, T_Scon, T_Scon_DRRR, 389.0, hit, 2, 0
1249, 9, T_Scon, T_Scon_DRRR, 312.5, hit, 2, 0
1250, 9, T_Scon, T_Scon_UGLG, 427.9, hit, 1, 0
1251, 9, T_Scon, T_Scon_UGLG, 387.4, hit, 1, 0
1252, 9, T_Scon, T_Scon_DRRR, 390.8, hit, 2, 0
1253, 9, T_Scon, T_Scon_DRRR, 514.3, hit, 2, 0
1254, 9, T_Scon, T_Scon_UGLG, 377.7, hit, 1, 0
1255, 9, T_Scon, T_Scon_UGLG, 417.2, hit, 1, 0
1256, 9, T_Scon, T_Scon_UGLG, 348.6, hit, 1, 0
1257, 9, T_Scon, T_Scon_DRRR, 392.0, hit, 2, 0
1258, 9, T_Sinc, T_Sinc_DGLG, 439.4, hit, 1, 0
1259, 9, T_Sinc, T_Sinc_URRR, 430.8, hit, 2, 0
1260, 9, T_Scon, T_Scon_UGLG, 386.3, hit, 1, 0
1261, 9, T_Scon, T_Scon_UGLG, 473.6, hit, 1, 0
1262, 9, T_Scon, T_Scon_UGLG, 285.0, hit, 1, 0
1263, 9, T_Scon, T_Scon_DRRR, 400.3, hit, 2, 0
1264, 9, T_Scon, T_Scon_DRRR, 355.8, hit, 2, 0
1265, 9, T_Scon, T_Scon_UGLG, 351.2, hit, 1, 0
1266, 9, T_Scon, T_Scon_UGLG, 314.7, hit, 1, 0
1267, 9, T_Scon, T_Scon_UGLG, 302.1, hit, 1, 0
1268, 9, T_Sinc, T_Sinc_URRR, 513.5, hit, 2, 0
1269, 9, T_Scon, T_Scon_UGLG, 453.0, hit, 1, 0
1270, 9, T_Scon, T_Scon_DRRR, 372.4, hit, 2, 0
1271, 9, T_Scon, T_Scon_DRRR, 391.9, hit, 2, 0
1272, 9, T_Scon, T_Scon_UGLG, 291.3, hit, 1, 0
1273, 9, T_Scon, T_Scon_DRRR, 278.8, hit, 2, 0
1274, 9, T_Scon, T_Scon_DRRR, 394.1, hit, 2, 0
1275, 9, T_Scon, T_Scon_DRRR, 509.6, incorrect, 1, 1
1276, 9, T_Sinc, T_Sinc_URRR, 389.0, hit, 2, 0
1277, 9, T_Sinc, T_Sinc_URRR, 1096.5, hit, 2, 2
1278, 9, T_Scon, T_Scon_UGLG, 435.9, hit, 1, 0
1279, 9, T_Scon, T_Scon_UGLG, 367.4, hit, 1, 0
1280, 9, T_Scon, T_Scon_DRRR, 434.8, hit, 2, 0
1281, 9, T_Scon, T_Scon_UGLG, 578.3, hit, 1, 0
1282, 9, T_Scon, T_Scon_UGLG, 397.6, hit, 1, 0
1283, 9, T_Scon, T_Scon_DRRR, 489.1, hit, 2, 0
1284, 9, T_Scon, T_Scon_DRRR, 820.5, hit, 2, 2
1285, 9, T_Scon, T_Scon_DRRR, 372.0, hit, 2, 0
1286, 9, T_Scon, T_Scon_DRRR, 291.4, hit, 2, 0
1287, 9, T_Scon, T_Scon_UGLG, 382.9, hit, 1, 0
1288, 9, T_Scon, T_Scon_DRRR, 466.3, hit, 2, 0
1289, 9, T_Scon, T_Scon_DRRR, 365.8, hit, 2, 0
1290, 9, T_Scon, T_Scon_DRRR, 353.1, hit, 2, 0
1291, 9, T_Scon, T_Scon_UGLG, 396.5, hit, 1, 0
1292, 9, T_Scon, T_Scon_DRRR, 360.0, hit, 2, 0
1293, 9, T_Scon, T_Scon_UGLG, 391.4, hit, 1, 0
1294, 9, T_Scon, T_Scon_UGLG, 406.9, hit, 1, 0
1295, 9, T_Sinc, T_Sinc_URRR, 486.3, hit, 2, 0
1296, 9, T_Scon, T_Scon_UGLG, 481.8, hit, 1, 0
