trial_index, block, condition, full_condition_code, RT, response_type, response_key, error_outlier
1, 1, T_Scon, T_Scon_URLR, 536.4, hit, 1, 0
2, 1, T_Scon, T_Scon_DGRG, 395.7, hit, 2, 0
3, 1, T_Scon, T_Scon_DGRG, 363.1, hit, 2, 0
4, 1, T_Sinc, T_Sinc_DRLR, 510.7, hit, 1, 0
5, 1, T_Sinc, T_Sinc_DRLR, 466.0, hit, 1, 0
6, 1, T_Sinc, T_Sinc_DRLR, 389.5, hit, 1, 0
7, 1, T_Scon, T_Scon_DGRG, 432.9, incorrect, 1, 1
8, 1, T_Scon, T_Scon_DGRG, 372.3, hit, 2, 0
9, 1, T_Scon, T_Scon_DGRG, 579.8, hit, 2, 0
10, 1, T_Scon, T_Scon_URLR, 407.2, hit, 1, 0
11, 1, T_Sinc, T_Sinc_DRLR, 390.7, hit, 1, 0
12, 1, T_Sinc, T_Sinc_UGRG, 386.0, hit, 2, 0
13, 1, T_Sinc, T_Sinc_DRLR, 433.5, hit, 1, 0
14, 1, T_Sinc, T_Sinc_DRLR, 473.0, hit, 1, 0
15, 1, T_Sinc, T_Sinc_DRLR, 380.4, hit, 1, 0
16, 1, T_Scon, T_Scon_DGRG, 391.8, hit, 2, 0
17, 1, T_Sinc, T_Sinc_DRLR, 387.2, hit, 1, 0
18, 1, T_Sinc, T_Sinc_DRLR, 322.7, hit, 1, 0
19, 1, T_Scon, T_Scon_DGRG, 414.2, hit, 2, 0
20, 1, T_Scon, T_Scon_DGRG, 489.5, incorrect, 1, 1
21, 1, T_Scon, T_Scon_DGRG, 557.1, hit, 2, 0
22, 1, T_Sinc, T_Sinc_UGRG, 512.4, hit, 2, 0
23, 1, T_Scon, T_Scon_URLR, 331.9, hit, 1, 0
24, 1, T_Sinc, T_Sinc_UGRG, 475.3, hit, 2, 0
25, 1, T_Sinc, T_Sinc_DRLR, 346.7, hit, 1, 0
26, 1, T_Scon, T_Scon_URLR, 358.2, hit, 1, 0
27, 1, T_Sinc, T_Sinc_DRLR, 441.6, hit, 1, 0
28, 1, T_Scon, T_Scon_DGRG, 269.1, hit, 2, 0
29, 1, T_Scon, T_Scon_URLR, 328.4, hit, 1, 0
30, 1, T_Scon, T_Scon_URLR, 655.9, hit, 1, 0
31, 1, T_Sinc, T_Sinc_DRLR, 475.4, hit, 1, 0
32, 1, T_Sinc, T_Sinc_UGRG, 550.8, hit, 2, 0
33, 1, T_Scon, T_Scon_URLR, 618.3, hit, 1, 0
34, 1, T_Sinc, T_Sinc_UGRG, 461.7, hit, 2, 0
35, 1, T_Sinc, T_Sinc_DRLR, 361.1, hit, 1, 0
36, 1, T_Scon, T_Scon_URLR, 336.6, hit, 1, 0
37, 1, T_Scon, T_Scon_DGRG, 659.7, hit, 2, 0
38, 1, T_Sinc, T_Sinc_DRLR, 315.2, hit, 1, 0
39, 1, T_Scon, T_Scon_URLR, 390.6, hit, 1, 0
40, 1, T_Scon, T_Scon_URLR, 326.0, hit, 1, 0
41, 1, T_Sinc, T_Sinc_DRLR, 505.4, hit, 1, 0
42, 1, T_Sinc, T_Sinc_DRLR, 380.9, hit, 1, 0
43, 1, T_Sinc, T_Sinc_DRLR, 408.4, hit, 1, 0
44, 1, T_Sinc, T_Sinc_UGRG, 431.7, hit, 2, 0
45, 1, T_Sinc, T_Sinc_UGRG, 439.2, hit, 2, 0
46, 1, T_Sinc, T_Sinc_UGRG, 454.7, hit, 2, 0
47, 1, T_Sinc, T_Sinc_UGRG, 486.1, hit, 2, 0
48, 1, T_Sinc, T_Sinc_DRLR, 337.5, hit, 1, 0
49, 1, T_Sinc, T_Sinc_DRLR, 328.9, hit, 1, 0
50, 1, T_Scon, T_Scon_URLR, 364.4, hit, 1, 0
51, 1, T_Sinc, T_Sinc_UGRG, 343.8, hit, 2, 0
52, 1, T_Sinc, T_Sinc_DRLR, 355.2, hit, 1, 0
53, 1, T_Sinc, T_Sinc_UGRG, 494.7, hit, 2, 0
54, 1, T_Sinc, T_Sinc_UGRG, 266.2, incorrect, 1, 1
55, 1, T_Scon, T_Scon_DGRG, 461.6, hit, 2, 0
56, 1, T_Sinc, T_Sinc_UGRG, 421.1, hit, 2, 0
57, 1, T_Sinc, T_Sinc_DRLR, 392.4, hit, 1, 0
58, 1, T_Sinc, T_Sinc_DRLR, 323.9, hit, 1, 0
59, 1, T_Scon, T_Scon_URLR, 339.4, hit, 1, 0
60, 1, T_Scon, T_Scon_URLR, 314.7, hit, 1, 0
61, 1, T_Sinc, T_Sinc_UGRG, 334.2, hit, 2, 0
62, 1, T_Sinc, T_Sinc_UGRG, 349.6, hit, 2, 0
63, 1, T_Sinc, T_Sinc_UGRG, 297.1, hit, 2, 0
64, 1, T_Sinc, T_Sinc_DRLR, 288.5, hit, 1, 0
65, 1, T_Scon, T_Scon_DGRG, 435.9, incorrect, 1, 1
66, 1, T_Scon, T_Scon_URLR, 343.4, hit, 1, 0
67, 1, T_Scon, T_Scon_URLR, 682.8, hit, 1, 0
68, 1, T_Scon, T_Scon_DGRG, 374.3, hit, 2, 0
69, 1, T_Scon, T_Scon_DGRG, 389.7, hit, 2, 0
70, 1, T_Scon, T_Scon_URLR, 393.1, hit, 1, 0
71, 1, T_Sinc, T_Sinc_DRLR, 756.6, hit, 1, 0
72, 1, T_Scon, T_Scon_URLR, 444.0, hit, 1, 0
73, 1, T_Scon, T_Scon_DGRG, 743.2, hit, 2, 0
74, 1, T_Sinc, T_Sinc_DRLR, 314.7, hit, 1, 0
75, 1, T_Scon, T_Scon_URLR, 354.0, hit, 1, 0
76, 1, T_Sinc, T_Sinc_DRLR, 413.5, hit, 1, 0
77, 1, T_Sinc, T_Sinc_UGRG, 448.9, hit, 2, 0
78, 1, T_Scon, T_Scon_DGRG, 596.4, hit, 2, 0
79, 1, T_Sinc, T_Sinc_UGRG, 607.7, hit, 2, 0
80, 1, T_Sinc, T_Sinc_UGRG, 659.2, hit, 2, 0
81, 1, T_Sinc, T_Sinc_UGRG, 506.7, hit, 2, 0
82, 1, T_Scon, T_Scon_DGRG, 422.0, hit, 2, 0
83, 1, T_Scon, T_Scon_URLR, 289.5, hit, 1, 0
84, 1, T_Scon, T_Scon_URLR, 741.0, hit, 1, 0
85, 1, T_Sinc, T_Sinc_UGRG, 352.4, hit, 2, 0
86, 1, T_Sinc, T_Sinc_UGRG, 607.9, hit, 2, 0
87, 1, T_Sinc, T_Sinc_UGRG, 379.3, hit, 2, 0
88, 1, T_Scon, T_Scon_DGRG, 374.7, hit, 2, 0
89, 1, T_Sinc, T_Sinc_UGRG, 322.2, hit, 2, 0
90, 1, T_Scon, T_Scon_URLR, 401.5, hit, 1, 0
91, 1, T_Scon, T_Scon_URLR, 537.0, hit, 1, 0
92, 1, T_Sinc, T_Sinc_DRLR, 492.5, hit, 1, 0
93, 1, T_Sinc, T_Sinc_UGRG, 379.9, hit, 2, 0
94, 1, T_Scon, T_Scon_URLR, 495.4, incorrect, 2, 1
95, 1, T_Scon, T_Scon_DGRG, 510.7, hit, 2, 0
96, 1, T_Sinc, T_Sinc_DRLR, 394.2, hit, 1, 0
97, 1, T_Scon, T_Scon_DGRG, 413.7, hit, 2, 0
98, 1, T_Sinc, T_Sinc_UGRG, 529.0, hit, 2, 0
99, 1, T_Sinc, T_Sinc_UGRG, 400.5, hit, 2, 0
100, 1, T_Sinc, T_Sinc_DRLR, 436.0, hit, 1, 0
101, 1, T_Sinc, T_Sinc_UGRG, 623.4, hit, 2, 0
102, 1, T_Scon, T_Scon_DGRG, 1026.9, hit, 2, 2
103, 1, T_Scon, T_Scon_URLR, 462.3, hit, 1, 0
104, 1, T_Scon, T_Scon_DGRG, 341.7, hit, 2, 0
105, 1, T_Scon, T_Scon_URLR, 817.2, hit, 1, 0
106, 1, T_Scon, T_Scon_URLR, 552.6, hit, 1, 0
107, 1, T_Scon, T_Scon_DGRG, 292.0, hit, 2, 0
108, 1, T_Scon, T_Scon_DGRG, 335.5, hit, 2, 0
109, 1, T_Scon, T_Scon_DGRG, 574.7, hit, 2, 0
110, 1, T_Scon, T_Scon_URLR, 330.1, hit, 1, 0
111, 1, T_Sinc, T_Sinc_UGRG, 909.5, incorrect, 1, 1
112, 1, T_Sinc, T_Sinc_DRLR, 457.0, hit, 1, 0
113, 1, T_Sinc, T_Sinc_UGRG, 508.4, hit, 2, 0
114, 1, T_Scon, T_Scon_URLR, 383.8, hit, 1, 0
115, 1, T_Sinc, T_Sinc_DRLR, 543.2, hit, 1, 0
116, 1, T_Scon, T_Scon_URLR, 494.7, hit, 1, 0
117, 1, T_Sinc, T_Sinc_UGRG, 346.2, hit, 2, 0
118, 1, T_Scon, T_Scon_DGRG, 397.5, hit, 2, 0
119, 1, T_Scon, T_Scon_URLR, 341.0, hit, 1, 0
120, 1, T_Scon, T_Scon_URLR, 384.5, hit, 1, 0
121, 1, T_Sinc, T_Sinc_DRLR, 475.9, hit, 1, 0
122, 1, T_Scon, T_Scon_DGRG, 419.3, hit, 2, 0
123, 1, T_Scon, T_Scon_DGRG, 586.8, hit, 2, 0
124, 1, T_Scon, T_Scon_DGRG, 518.2, hit, 2, 0
125, 1, T_Sinc, T_Sinc_DRLR, 541.7, hit, 1, 0
126, 1, T_Scon, T_Scon_DGRG, 353.0, hit, 2, 0
127, 1, T_Sinc, T_Sinc_UGRG, 492.5, hit, 2, 0
128, 1, T_Scon, T_Scon_DGRG, 520.0, hit, 2, 0
129, 1, T_Scon, T_Scon_URLR, 451.4, hit, 1, 0
130, 1, T_Scon, T_Scon_DGRG, 454.8, hit, 2, 0
131, 1, T_Scon, T_Scon_URLR, 778.2, hit, 1, 0
132, 1, T_Sinc, T_Sinc_UGRG, 313.7, hit, 2, 0
133, 1, T_Scon, T_Scon_DGRG, 337.2, hit, 2, 0
134, 1, T_Sinc, T_Sinc_DRLR, 416.5, hit, 1, 0
135, 1, T_Scon, T_Scon_URLR, 448.0, hit, 1, 0
136, 1, T_Sinc, T_Sinc_DRLR, 475.5, hit, 1, 0
137, 1, T_Sinc, T_Sinc_UGRG, 374.9, hit, 2, 0
138, 1, T_Sinc, T_Sinc_UGRG, 450.4, hit, 2, 0
139, 1, T_Scon, T_Scon_DGRG, 389.7, hit, 2, 0
140, 1, T_Scon, T_Scon_DGRG, 525.2, hit, 2, 0
141, 1, T_Scon, T_Scon_URLR, 328.7, hit, 1, 0
142, 1, T_Scon, T_Scon_URLR, 460.1, hit, 1, 0
143, 1, T_Sinc, T_Sinc_UGRG, 431.6, hit, 2, 0
144, 1, T_Sinc, T_Sinc_DRLR, 359.1, hit, 1, 0
145, 2, T_Sinc, T_Sinc_DRLR, 582.2, hit, 1, 0
146, 2, T_Sinc, T_Sinc_DRLR, 357.6, hit, 1, 0
147, 2, T_Scon, T_Scon_DGRG, 337.1, hit, 2, 0
148, 2, T_Sinc, T_Sinc_UGRG, 592.5, hit, 2, 0
149, 2, T_Scon, T_Scon_DGRG, 432.0, hit, 2, 0
150, 2, T_Scon, T_Scon_URLR, 319.4, hit, 1, 0
151, 2, T_Sinc, T_Sinc_UGRG, 474.8, hit, 2, 0
152, 2, T_Sinc, T_Sinc_UGRG, 446.2, hit, 2, 0
153, 2, T_Scon, T_Scon_URLR, 401.7, hit, 1, 0
154, 2, T_Scon, T_Scon_DGRG, 357.2, hit, 2, 0
155, 2, T_Sinc, T_Sinc_DRLR, 436.5, hit, 1, 0
156, 2, T_Scon, T_Scon_URLR, 408.0, hit, 1, 0
157, 2, T_Scon, T_Scon_DGRG, 279.4, hit, 2, 0
158, 2, T_Scon, T_Scon_DGRG, 438.9, hit, 2, 0
159, 2, T_Sinc, T_Sinc_DRLR, 306.4, hit, 1, 0
160, 2, T_Scon, T_Scon_DGRG, 277.7, hit, 2, 0
161, 2, T_Scon, T_Scon_DGRG, 433.2, hit, 2, 0
162, 2, T_Scon, T_Scon_URLR, 332.7, hit, 1, 0
163, 2, T_Scon, T_Scon_URLR, 464.0, hit, 1, 0
164, 2, T_Scon, T_Scon_DGRG, 311.5, hit, 2, 0
165, 2, T_Sinc, T_Sinc_DRLR, 582.9, hit, 1, 0
166, 2, T_Sinc, T_Sinc_DRLR, 422.4, hit, 1, 0
167, 2, T_Sinc, T_Sinc_UGRG, 369.8, hit, 2, 0
168, 2, T_Sinc, T_Sinc_UGRG, 381.2, hit, 2, 0
169, 2, T_Sinc, T_Sinc_DRLR, 384.7, hit, 1, 0
170, 2, T_Sinc, T_Sinc_UGRG, 276.2, hit, 2, 0
171, 2, T_Scon, T_Scon_DGRG, 359.6, hit, 2, 0
172, 2, T_Scon, T_Scon_URLR, 267.0, hit, 1, 0
173, 2, T_Sinc, T_Sinc_DRLR, 342.4, incorrect, 2, 1
174, 2, T_Sinc, T_Sinc_DRLR, 449.9, hit, 1, 0
175, 2, T_Scon, T_Scon_URLR, 417.4, hit, 1, 0
176, 2, T_Sinc, T_Sinc_UGRG, 352.7, hit, 2, 0
177, 2, T_Sinc, T_Sinc_UGRG, 432.2, hit, 2, 0
178, 2, T_Sinc, T_Sinc_UGRG, 583.7, hit, 2, 0
179, 2, T_Scon, T_Scon_DGRG, 559.1, hit, 2, 0
180, 2, T_Scon, T_Scon_URLR, 290.5, hit, 1, 0
181, 2, T_Scon, T_Scon_DGRG, 585.7, hit, 2, 0
182, 2, T_Sinc, T_Sinc_DRLR, 353.2, hit, 1, 0
183, 2, T_Sinc, T_Sinc_UGRG, 492.5, incorrect, 1, 1
184, 2, T_Scon, T_Scon_URLR, 384.0, hit, 1, 0
185, 2, T_Sinc, T_Sinc_UGRG, 683.4, hit, 2, 0
186, 2, T_Sinc, T_Sinc_UGRG, 454.8, hit, 2, 0
187, 2, T_Sinc, T_Sinc_UGRG, 442.3, hit, 2, 0
188, 2, T_Sinc, T_Sinc_DRLR, 545.7, hit, 1, 0
189, 2, T_Scon, T_Scon_URLR, 637.2, hit, 1, 0
190, 2, T_Sinc, T_Sinc_UGRG, 368.6, incorrect, 1, 1
191, 2, T_Sinc, T_Sinc_DRLR, 420.0, hit, 1, 0
192, 2, T_Scon, T_Scon_DGRG, 403.5, hit, 2, 0
193, 2, T_Scon, T_Scon_DGRG, 482.9, hit, 2, 0
194, 2, T_Scon, T_Scon_URLR, 338.4, hit, 1, 0
195, 2, T_Sinc, T_Sinc_DRLR, 557.8, hit, 1, 0
196, 2, T_Sinc, T_Sinc_DRLR, 485.2, hit, 1, 0
197, 2, T_Sinc, T_Sinc_DRLR, 392.7, hit, 1, 0
198, 2, T_Scon, T_Scon_DGRG, 392.1, hit, 2, 0
199, 2, T_Sinc, T_Sinc_UGRG, 555.5, hit, 2, 0
200, 2, T_Scon, T_Scon_DGRG, 1007.0, hit, 2, 2
201, 2, T_Scon, T_Scon_DGRG, 474.4, hit, 2, 0
202, 2, T_Sinc, T_Sinc_DRLR, 381.9, hit, 1, 0
203, 2, T_Scon, T_Scon_URLR, 441.2, hit, 1, 0
204, 2, T_Scon, T_Scon_URLR, 388.7, hit, 1, 0
205, 2, T_Scon, T_Scon_DGRG, 224.2, hit, 2, 0
206, 2, T_Scon, T_Scon_URLR, 323.6, hit, 1, 0
207, 2, T_Sinc, T_Sinc_DRLR, 431.0, hit, 1, 0
208, 2, T_Scon, T_Scon_DGRG, 434.5, hit, 2, 0
209, 2, T_Sinc, T_Sinc_UGRG, 445.9, hit, 2, 0
210, 2, T_Sinc, T_Sinc_UGRG, 497.4, hit, 2, 0
211, 2, T_Sinc, T_Sinc_DRLR, 292.8, hit, 1, 0
212, 2, T_Sinc, T_Sinc_UGRG, 480.2, hit, 2, 0
213, 2, T_Sinc, T_Sinc_UGRG, 431.7, hit, 2, 0
214, 2, T_Sinc, T_Sinc_UGRG, 475.1, hit, 2, 0
215, 2, T_Scon, T_Scon_URLR, 390.5, hit, 1, 0
216, 2, T_Scon, T_Scon_URLR, 274.0, hit, 1, 0
217, 2, T_Scon, T_Scon_DGRG, 549.2, hit, 2, 0
218, 2, T_Sinc, T_Sinc_UGRG, 364.5, hit, 2, 0
219, 2, T_Scon, T_Scon_DGRG, 388.0, hit, 2, 0
220, 2, T_Scon, T_Scon_URLR, 275.5, hit, 1, 0
221, 2, T_Sinc, T_Sinc_DRLR, 558.8, hit, 1, 0
222, 2, T_Sinc, T_Sinc_UGRG, 306.3, hit, 2, 0
223, 2, T_Sinc, T_Sinc_UGRG, 429.8, hit, 2, 0
224, 2, T_Scon, T_Scon_URLR, 297.2, hit, 1, 0
225, 2, T_Sinc, T_Sinc_DRLR, 436.7, hit, 1, 0
226, 2, T_Scon, T_Scon_URLR, 296.0, hit, 1, 0
227, 2, T_Sinc, T_Sinc_UGRG, 367.5, hit, 2, 0
228, 2, T_Sinc, T_Sinc_DRLR, 351.0, incorrect, 2, 1
229, 2, T_Sinc, T_Sinc_UGRG, 478.4, hit, 2, 0
230, 2, T_Scon, T_Scon_URLR, 333.8, hit, 1, 0
231, 2, T_Sinc, T_Sinc_DRLR, 509.3, hit, 1, 0
232, 2, T_Scon, T_Scon_DGRG, 444.7, hit, 2, 0
233, 2, T_Scon, T_Scon_DGRG, 348.2, hit, 2, 0
234, 2, T_Sinc, T_Sinc_DRLR, 355.5, hit, 1, 0
235, 2, T_Scon, T_Scon_URLR, 295.0, hit, 1, 0
236, 2, T_Scon, T_Scon_URLR, 394.5, hit, 1, 0
237, 2, T_Scon, T_Scon_DGRG, 453.9, hit, 2, 0
238, 2, T_Sinc, T_Sinc_DRLR, 369.3, hit, 1, 0
239, 2, T_Scon, T_Scon_DGRG, 404.7, hit, 2, 0
240, 2, T_Sinc, T_Sinc_UGRG, 440.2, hit, 2, 0
241, 2, T_Sinc, T_Sinc_DRLR, 475.7, hit, 1, 0
242, 2, T_Sinc, T_Sinc_DRLR, 471.0, hit, 1, 0
243, 2, T_Sinc, T_Sinc_UGRG, 498.5, hit, 2, 0
244, 2, T_Scon, T_Scon_DGRG, 409.9, hit, 2, 0
245, 2, T_Sinc, T_Sinc_UGRG, 453.4, hit, 2, 0
246, 2, T_Sinc, T_Sinc_DRLR, 536.8, hit, 1, 0
247, 2, T_Sinc, T_Sinc_DRLR, 296.2, hit, 1, 0
248, 2, T_Scon, T_Scon_URLR, 335.7, hit, 1, 0
249, 2, T_Sinc, T_Sinc_UGRG, 467.1, hit, 2, 0
250, 2, T_Scon, T_Scon_DGRG, 438.5, incorrect, 1, 1
251, 2, T_Scon, T_Scon_DGRG, 770.0, hit, 2, 0
252, 2, T_Scon, T_Scon_DGRG, 549.4, hit, 2, 0
253, 2, T_Scon, T_Scon_URLR, 428.6, hit, 1, 0
254, 2, T_Scon, T_Scon_URLR, 324.0, hit, 1, 0
255, 2, T_Scon, T_Scon_DGRG, 295.5, hit, 2, 0
256, 2, T_Sinc, T_Sinc_DRLR, 330.9, hit, 1, 0
257, 2, T_Scon, T_Scon_DGRG, 362.3, hit, 2, 0
258, 2, T_Sinc, T_Sinc_UGRG, 437.7, hit, 2, 0
259, 2, T_Scon, T_Scon_DGRG, 401.2, hit, 2, 0
260, 2, T_Scon, T_Scon_URLR, 220.7, hit, 1, 0
261, 2, T_Scon, T_Scon_URLR, 388.0, hit, 1, 0
262, 2, T_Scon, T_Scon_URLR, 439.5, hit, 1, 0
263, 2, T_Scon, T_Scon_URLR, 347.0, hit, 1, 0
264, 2, T_Sinc, T_Sinc_DRLR, 430.4, hit, 1, 0
265, 2, T_Scon, T_Scon_URLR, 337.8, hit, 1, 0
266, 2, T_Sinc, T_Sinc_UGRG, 349.2, hit, 2, 0
267, 2, T_Scon, T_Scon_DGRG, 484.7, hit, 2, 0
268, 2, T_Sinc, T_Sinc_DRLR, 448.2, incorrect, 2, 1
269, 2, T_Sinc, T_Sinc_DRLR, 363.5, hit, 1, 0
270, 2, T_Scon, T_Scon_DGRG, 419.0, hit, 2, 0
271, 2, T_Sinc, T_Sinc_UGRG, 690.5, hit, 2, 0
272, 2, T_Sinc, T_Sinc_DRLR, 489.9, hit, 1, 0
273, 2, T_Scon, T_Scon_URLR, 445.3, hit, 1, 0
274, 2, T_Sinc, T_Sinc_UGRG, 432.7, hit, 2, 0
275, 2, T_Scon, T_Scon_URLR, 296.2, hit, 1, 0
276, 2, T_Sinc, T_Sinc_DRLR, 479.6, hit, 1, 0
277, 2, T_Sinc, T_Sinc_DRLR, 379.0, hit, 1, 0
278, 2, T_Scon, T_Scon_URLR, 350.5, hit, 1, 0
279, 2, T_Scon, T_Scon_URLR, 349.9, hit, 1, 0
280, 2, T_Sinc, T_Sinc_UGRG, 569.4, hit, 2, 0
281, 2, T_Sinc, T_Sinc_DRLR, 388.8, hit, 1, 0
282, 2, T_Scon, T_Scon_URLR, 464.2, hit, 1, 0
283, 2, T_Scon, T_Scon_URLR, 387.7, hit, 1, 0
284, 2, T_Sinc, T_Sinc_UGRG, 407.1, hit, 2, 0
285, 2, T_Scon, T_Scon_DGRG, 1202.5, hit, 2, 2
286, 2, T_Sinc, T_Sinc_UGRG, 502.0, hit, 2, 0
287, 2, T_Scon, T_Scon_DGRG, 433.4, hit, 2, 0
288, 2, T_Scon, T_Scon_DGRG, 412.9, hit, 2, 0
289, 3, T_Sinc, T_Sinc_UGRG, 483.5, incorrect, 1, 1
290, 3, T_Scon, T_Scon_URLR, 414.9, hit, 1, 0
291, 3, T_Scon, T_Scon_URLR, 450.3, hit, 1, 0
292, 3, T_Sinc, T_Sinc_DRLR, 485.7, hit, 1, 0
293, 3, T_Scon, T_Scon_URLR, 345.2, hit, 1, 0
294, 3, T_Sinc, T_Sinc_UGRG, 392.7, hit, 2, 0
295, 3, T_Scon, T_Scon_DGRG, 500.0, hit, 2, 0
296, 3, T_Sinc, T_Sinc_UGRG, 455.5, hit, 2, 0
297, 3, T_Scon, T_Scon_DGRG, 382.9, hit, 2, 0
298, 3, T_Scon, T_Scon_URLR, 370.3, hit, 1, 0
299, 3, T_Sinc, T_Sinc_DRLR, 381.8, hit, 1, 0
300, 3, T_Scon, T_Scon_URLR, 433.2, hit, 1, 0
301, 3, T_Scon, T_Scon_URLR, 360.7, hit, 1, 0
302, 3, T_Sinc, T_Sinc_DRLR, 432.2, hit, 1, 0
303, 3, T_Scon, T_Scon_DGRG, 507.5, hit, 2, 0
304, 3, T_Sinc, T_Sinc_UGRG, 627.0, hit, 2, 0
305, 3, T_Sinc, T_Sinc_UGRG, 846.4, hit, 2, 0
306, 3, T_Sinc, T_Sinc_DRLR, 485.8, hit, 1, 0
307, 3, T_Sinc, T_Sinc_UGRG, 561.3, hit, 2, 0
308, 3, T_Scon, T_Scon_DGRG, 624.7, hit, 2, 0
309, 3, T_Scon, T_Scon_DGRG, 624.2, hit, 2, 0
310, 3, T_Sinc, T_Sinc_DRLR, 555.6, hit, 1, 0
311, 3, T_Scon, T_Scon_DGRG, 727.1, hit, 2, 0
312, 3, T_Sinc, T_Sinc_UGRG, 718.5, hit, 2, 0
313, 3, T_Scon, T_Scon_DGRG, 377.9, hit, 2, 0
314, 3, T_Scon, T_Scon_DGRG, 329.4, hit, 2, 0
315, 3, T_Scon, T_Scon_URLR, 364.8, hit, 1, 0
316, 3, T_Sinc, T_Sinc_UGRG, 264.2, hit, 2, 0
317, 3, T_Sinc, T_Sinc_DRLR, 467.7, hit, 1, 0
318, 3, T_Scon, T_Scon_DGRG, 551.2, hit, 2, 0
319, 3, T_Sinc, T_Sinc_DRLR, 706.5, hit, 1, 0
320, 3, T_Sinc, T_Sinc_UGRG, 1082.0, hit, 2, 2
321, 3, T_Sinc, T_Sinc_DRLR, 517.4, hit, 1, 0
322, 3, T_Scon, T_Scon_URLR, 424.9, hit, 1, 0
323, 3, T_Sinc, T_Sinc_UGRG, 660.3, hit, 2, 0
324, 3, T_Sinc, T_Sinc_DRLR, 463.7, hit, 1, 0
325, 3, T_Scon, T_Scon_URLR, 458.9, hit, 1, 0
326, 3, T_Sinc, T_Sinc_UGRG, 418.3, hit, 2, 0
327, 3, T_Scon, T_Scon_URLR, 261.8, hit, 1, 0
328, 3, T_Sinc, T_Sinc_UGRG, 309.2, hit, 2, 0
329, 3, T_Scon, T_Scon_URLR, 356.7, hit, 1, 0
330, 3, T_Scon, T_Scon_URLR, 416.1, hit, 1, 0
331, 3, T_Sinc, T_Sinc_UGRG, 339.5, incorrect, 1, 1
332, 3, T_Sinc, T_Sinc_DRLR, 335.0, hit, 1, 0
333, 3, T_Scon, T_Scon_URLR, 482.4, hit, 1, 0
334, 3, T_Sinc, T_Sinc_UGRG, 441.8, hit, 2, 0
335, 3, T_Scon, T_Scon_URLR, 457.3, hit, 1, 0
336, 3, T_Scon, T_Scon_DGRG, 524.7, hit, 2, 0
337, 3, T_Sinc, T_Sinc_DRLR, 412.1, hit, 1, 0
338, 3, T_Scon, T_Scon_URLR, 379.5, hit, 1, 0
339, 3, T_Sinc, T_Sinc_DRLR, 459.0, hit, 1, 0
340, 3, T_Scon, T_Scon_URLR, 374.5, hit, 1, 0
341, 3, T_Sinc, T_Sinc_UGRG, 337.9, hit, 2, 0
342, 3, T_Sinc, T_Sinc_UGRG, 541.3, hit, 2, 0
343, 3, T_Sinc, T_Sinc_DRLR, 432.8, hit, 1, 0
344, 3, T_Scon, T_Scon_URLR, 452.2, hit, 1, 0
345, 3, T_Scon, T_Scon_URLR, 323.7, hit, 1, 0
346, 3, T_Scon, T_Scon_DGRG, 479.0, hit, 2, 0
347, 3, T_Sinc, T_Sinc_DRLR, 362.5, hit, 1, 0
348, 3, T_Scon, T_Scon_URLR, 382.0, hit, 1, 0
349, 3, T_Sinc, T_Sinc_DRLR, 457.4, hit, 1, 0
350, 3, T_Sinc, T_Sinc_DRLR, 392.8, hit, 1, 0
351, 3, T_Sinc, T_Sinc_DRLR, 404.3, hit, 1, 0
352, 3, T_Scon, T_Scon_URLR, 783.7, hit, 1, 0
353, 3, T_Scon, T_Scon_DGRG, 335.2, hit, 2, 0
354, 3, T_Scon, T_Scon_URLR, 298.5, hit, 1, 0
355, 3, T_Scon, T_Scon_URLR, 322.0, hit, 1, 0
356, 3, T_Scon, T_Scon_DGRG, 441.5, hit, 2, 0
357, 3, T_Sinc, T_Sinc_UGRG, 320.9, incorrect, 1, 1
358, 3, T_Scon, T_Scon_DGRG, 376.3, hit, 2, 0
359, 3, T_Sinc, T_Sinc_DRLR, 343.8, hit, 1, 0
360, 3, T_Scon, T_Scon_URLR, 327.2, hit, 1, 0
361, 3, T_Sinc, T_Sinc_UGRG, 730.4, hit, 2, 0
362, 3, T_Sinc, T_Sinc_UGRG, 413.8, hit, 2, 0
363, 3, T_Scon, T_Scon_DGRG, 397.3, hit, 2, 0
364, 3, T_Scon, T_Scon_DGRG, 448.6, hit, 2, 0
365, 3, T_Scon, T_Scon_URLR, 308.1, hit, 1, 0
366, 3, T_Scon, T_Scon_DGRG, 387.5, hit, 2, 0
367, 3, T_Scon, T_Scon_URLR, 315.0, hit, 1, 0
368, 3, T_Sinc, T_Sinc_UGRG, 334.4, hit, 2, 0
369, 3, T_Scon, T_Scon_URLR, 369.8, hit, 1, 0
370, 3, T_Sinc, T_Sinc_UGRG, 317.3, hit, 2, 0
371, 3, T_Sinc, T_Sinc_DRLR, 408.7, hit, 1, 0
372, 3, T_Scon, T_Scon_DGRG, 320.1, hit, 2, 0
373, 3, T_Scon, T_Scon_DGRG, 491.6, hit, 2, 0
374, 3, T_Sinc, T_Sinc_DRLR, 363.0, hit, 1, 0
375, 3, T_Scon, T_Scon_URLR, 446.5, hit, 1, 0
376, 3, T_Sinc, T_Sinc_UGRG, 418.0, hit, 2, 0
377, 3, T_Sinc, T_Sinc_DRLR, 461.3, hit, 1, 0
378, 3, T_Sinc, T_Sinc_UGRG, 288.8, hit, 2, 0
379, 3, T_Sinc, T_Sinc_DRLR, 448.3, hit, 1, 0
380, 3, T_Sinc, T_Sinc_UGRG, 403.6, incorrect, 1, 1
381, 3, T_Sinc, T_Sinc_DRLR, 487.1, hit, 1, 0
382, 3, T_Sinc, T_Sinc_UGRG, 378.5, hit, 2, 0
383, 3, T_Sinc, T_Sinc_UGRG, 494.0, hit, 2, 0
384, 3, T_Scon, T_Scon_URLR, 345.5, hit, 1, 0
385, 3, T_Scon, T_Scon_URLR, 592.8, hit, 1, 0
386, 3, T_Scon, T_Scon_URLR, 312.3, hit, 1, 0
387, 3, T_Sinc, T_Sinc_DRLR, 603.7, hit, 1, 0
388, 3, T_Scon, T_Scon_DGRG, 415.2, hit, 2, 0
389, 3, T_Sinc, T_Sinc_DRLR, 450.6, hit, 1, 0
390, 3, T_Sinc, T_Sinc_UGRG, 998.0, hit, 2, 2
391, 3, T_Scon, T_Scon_DGRG, 593.5, hit, 2, 0
392, 3, T_Sinc, T_Sinc_DRLR, 432.9, hit, 1, 0
393, 3, T_Scon, T_Scon_DGRG, 472.3, hit, 2, 0
394, 3, T_Sinc, T_Sinc_UGRG, 459.8, hit, 2, 0
395, 3, T_Scon, T_Scon_DGRG, 511.2, hit, 2, 0
396, 3, T_Scon, T_Scon_DGRG, 518.7, hit, 2, 0
397, 3, T_Sinc, T_Sinc_UGRG, 669.8, hit, 2, 0
398, 3, T_Scon, T_Scon_DGRG, 429.3, hit, 2, 0
399, 3, T_Sinc, T_Sinc_DRLR, 344.7, hit, 1, 0
400, 3, T_Sinc, T_Sinc_DRLR, 380.1, hit, 1, 0
401, 3, T_Scon, T_Scon_URLR, 391.6, hit, 1, 0
402, 3, T_Scon, T_Scon_DGRG, 531.0, hit, 2, 0
403, 3, T_Sinc, T_Sinc_DRLR, 398.4, hit, 1, 0
404, 3, T_Sinc, T_Sinc_UGRG, 649.8, hit, 2, 0
405, 3, T_Scon, T_Scon_URLR, 501.3, hit, 1, 0
406, 3, T_Scon, T_Scon_URLR, 368.8, hit, 1, 0
407, 3, T_Sinc, T_Sinc_DRLR, 532.2, hit, 1, 0
408, 3, T_Scon, T_Scon_DGRG, 319.6, hit, 2, 0
409, 3, T_Sinc, T_Sinc_DRLR, 427.0, hit, 1, 0
410, 3, T_Scon, T_Scon_DGRG, 438.5, hit, 2, 0
411, 3, T_Sinc, T_Sinc_UGRG, 446.0, hit, 2, 0
412, 3, T_Scon, T_Scon_URLR, 489.3, hit, 1, 0
413, 3, T_Sinc, T_Sinc_UGRG, 548.8, hit, 2, 0
414, 3, T_Sinc, T_Sinc_DRLR, 648.2, hit, 1, 0
415, 3, T_Sinc, T_Sinc_DRLR, 507.7, hit, 1, 0
416, 3, T_Scon, T_Scon_URLR, 519.1, hit, 1, 0
417, 3, T_Sinc, T_Sinc_DRLR, 462.5, hit, 1, 0
418, 3, T_Sinc, T_Sinc_UGRG, 434.0, hit, 2, 0
419, 3, T_Sinc, T_Sinc_UGRG, 457.5, hit, 2, 0
420, 3, T_Scon, T_Scon_DGRG, 612.8, hit, 2, 0
421, 3, T_Scon, T_Scon_URLR, 460.3, hit, 1, 0
422, 3, T_Scon, T_Scon_DGRG, 623.7, hit, 2, 0
423, 3, T_Scon, T_Scon_DGRG, 483.2, hit, 2, 0
424, 3, T_Sinc, T_Sinc_UGRG, 670.6, incorrect, 1, 1
425, 3, T_Sinc, T_Sinc_DRLR, 454.0, hit, 1, 0
426, 3, T_Scon, T_Scon_DGRG, 517.5, hit, 2, 0
427, 3, T_Sinc, T_Sinc_DRLR, 520.9, hit, 1, 0
428, 3, T_Scon, T_Scon_DGRG, 396.3, hit, 2, 0
429, 3, T_Scon, T_Scon_DGRG, 447.8, hit, 2, 0
430, 3, T_Sinc, T_Sinc_UGRG, 675.2, hit, 2, 0
431, 3, T_Scon, T_Scon_DGRG, 454.7, hit, 2, 0
432, 3, T_Scon, T_Scon_DGRG, 482.1, hit, 2, 0
433, 4, T_Scon, T_Scon_DGRG, 716.2, hit, 2, 0
434, 4, T_Scon, T_Scon_URLR, 467.7, hit, 1, 0
435, 4, T_Sinc, T_Sinc_UGRG, 399.0, hit, 2, 0
436, 4, T_Sinc, T_Sinc_UGRG, 374.5, incorrect, 1, 1
437, 4, T_Scon, T_Scon_URLR, 354.0, hit, 1, 0
438, 4, T_Sinc, T_Sinc_UGRG, 389.3, hit, 2, 0
439, 4, T_Sinc, T_Sinc_DRLR, 348.8, hit, 1, 0
440, 4, T_Scon, T_Scon_URLR, 464.3, hit, 1, 0
441, 4, T_Sinc, T_Sinc_UGRG, 431.7, incorrect, 1, 1
442, 4, T_Scon, T_Scon_URLR, 335.1, hit, 1, 0
443, 4, T_Scon, T_Scon_URLR, 458.5, hit, 1, 0
444, 4, T_Scon, T_Scon_URLR, 526.0, hit, 1, 0
445, 4, T_Scon, T_Scon_URLR, 409.5, hit, 1, 0
446, 4, T_Sinc, T_Sinc_DRLR, 568.8, hit, 1, 0
447, 4, T_Sinc, T_Sinc_UGRG, 396.3, hit, 2, 0
448, 4, T_Scon, T_Scon_URLR, 463.7, hit, 1, 0
449, 4, T_Sinc, T_Sinc_UGRG, 379.2, hit, 2, 0
450, 4, T_Sinc, T_Sinc_UGRG, 546.7, hit, 2, 0
451, 4, T_Scon, T_Scon_URLR, 482.0, hit, 1, 0
452, 4, T_Sinc, T_Sinc_DRLR, 545.5, hit, 1, 0
453, 4, T_Scon, T_Scon_URLR, 437.0, hit, 1, 0
454, 4, T_Scon, T_Scon_URLR, 360.3, hit, 1, 0
455, 4, T_Scon, T_Scon_URLR, 647.8, hit, 1, 0
456, 4, T_Scon, T_Scon_DGRG, 619.2, hit, 2, 0
457, 4, T_Sinc, T_Sinc_DRLR, 558.7, hit, 1, 0
458, 4, T_Sinc, T_Sinc_DRLR, 382.2, hit, 1, 0
459, 4, T_Scon, T_Scon_DGRG, 353.5, hit, 2, 0
460, 4, T_Sinc, T_Sinc_DRLR, 533.0, hit, 1, 0
461, 4, T_Sinc, T_Sinc_UGRG, 400.4, incorrect, 1, 1
462, 4, T_Sinc, T_Sinc_DRLR, 563.9, hit, 1, 0
463, 4, T_Sinc, T_Sinc_DRLR, 423.3, hit, 1, 0
464, 4, T_Scon, T_Scon_DGRG, 498.7, hit, 2, 0
465, 4, T_Sinc, T_Sinc_DRLR, 422.2, hit, 1, 0
466, 4, T_Sinc, T_Sinc_DRLR, 397.6, hit, 1, 0
467, 4, T_Sinc, T_Sinc_DRLR, 449.0, hit, 1, 0
468, 4, T_Sinc, T_Sinc_UGRG, 532.5, hit, 2, 0
469, 4, T_Scon, T_Scon_DGRG, 747.7, hit, 2, 0
470, 4, T_Sinc, T_Sinc_DRLR, 355.1, hit, 1, 0
471, 4, T_Scon, T_Scon_URLR, 374.5, hit, 1, 0
472, 4, T_Scon, T_Scon_URLR, 378.0, hit, 1, 0
473, 4, T_Scon, T_Scon_DGRG, 437.3, hit, 2, 0
474, 4, T_Sinc, T_Sinc_UGRG, 500.8, hit, 2, 0
475, 4, T_Sinc, T_Sinc_DRLR, 464.3, hit, 1, 0
476, 4, T_Scon, T_Scon_URLR, 483.7, hit, 1, 0
477, 4, T_Scon, T_Scon_DGRG, 783.1, hit, 2, 0
478, 4, T_Scon, T_Scon_DGRG, 462.6, hit, 2, 0
479, 4, T_Scon, T_Scon_URLR, 646.0, hit, 1, 0
480, 4, T_Scon, T_Scon_DGRG, 609.4, hit, 2, 0
481, 4, T_Scon, T_Scon_DGRG, 584.8, hit, 2, 0
482, 4, T_Sinc, T_Sinc_DRLR, 732.3, hit, 1, 0
483, 4, T_Scon, T_Scon_URLR, 667.8, hit, 1, 0
484, 4, T_Scon, T_Scon_URLR, 459.2, hit, 1, 0
485, 4, T_Scon, T_Scon_DGRG, 446.6, hit, 2, 0
486, 4, T_Sinc, T_Sinc_UGRG, 618.0, hit, 2, 0
487, 4, T_Sinc, T_Sinc_DRLR, 493.5, hit, 1, 0
488, 4, T_Scon, T_Scon_DGRG, 545.0, incorrect, 1, 1
489, 4, T_Scon, T_Scon_URLR, 380.4, hit, 1, 0
490, 4, T_Sinc, T_Sinc_DRLR, 471.8, hit, 1, 0
491, 4, T_Scon, T_Scon_DGRG, 515.2, hit, 2, 0
492, 4, T_Scon, T_Scon_URLR, 446.7, hit, 1, 0
493, 4, T_Sinc, T_Sinc_DRLR, 450.2, hit, 1, 0
494, 4, T_Sinc, T_Sinc_UGRG, 485.5, hit, 2, 0
495, 4, T_Scon, T_Scon_URLR, 673.0, hit, 1, 0
496, 4, T_Scon, T_Scon_DGRG, 528.5, hit, 2, 0
497, 4, T_Scon, T_Scon_URLR, 395.9, hit, 1, 0
498, 4, T_Sinc, T_Sinc_DRLR, 423.3, hit, 1, 0
499, 4, T_Scon, T_Scon_DGRG, 762.7, hit, 2, 0
500, 4, T_Sinc, T_Sinc_UGRG, 834.2, hit, 2, 0
501, 4, T_Scon, T_Scon_URLR, 393.7, hit, 1, 0
502, 4, T_Sinc, T_Sinc_UGRG, 541.0, hit, 2, 0
503, 4, T_Sinc, T_Sinc_UGRG, 584.5, hit, 2, 0
504, 4, T_Scon, T_Scon_DGRG, 571.9, hit, 2, 0
505, 4, T_Sinc, T_Sinc_UGRG, 543.2, hit, 2, 0
506, 4, T_Sinc, T_Sinc_DRLR, 450.5, hit, 1, 0
507, 4, T_Sinc, T_Sinc_UGRG, 514.0, hit, 2, 0
508, 4, T_Sinc, T_Sinc_UGRG, 461.4, hit, 2, 0
509, 4, T_Sinc, T_Sinc_UGRG, 480.8, hit, 2, 0
510, 4, T_Scon, T_Scon_DGRG, 468.2, hit, 2, 0
511, 4, T_Sinc, T_Sinc_UGRG, 403.7, hit, 2, 0
512, 4, T_Sinc, T_Sinc_UGRG, 443.2, hit, 2, 0
513, 4, T_Sinc, T_Sinc_DRLR, 318.5, hit, 1, 0
514, 4, T_Sinc, T_Sinc_UGRG, 418.0, hit, 2, 0
515, 4, T_Sinc, T_Sinc_DRLR, 413.5, hit, 1, 0
516, 4, T_Scon, T_Scon_URLR, 464.9, hit, 1, 0
517, 4, T_Scon, T_Scon_DGRG, 420.4, hit, 2, 0
518, 4, T_Scon, T_Scon_URLR, 339.7, hit, 1, 0
519, 4, T_Scon, T_Scon_URLR, 383.2, hit, 1, 0
520, 4, T_Sinc, T_Sinc_DRLR, 558.7, hit, 1, 0
521, 4, T_Sinc, T_Sinc_UGRG, 458.0, hit, 2, 0
522, 4, T_Sinc, T_Sinc_DRLR, 1309.5, hit, 1, 2
523, 4, T_Sinc, T_Sinc_UGRG, 457.0, hit, 2, 0
524, 4, T_Scon, T_Scon_DGRG, 552.4, hit, 2, 0
525, 4, T_Sinc, T_Sinc_UGRG, 483.8, hit, 2, 0
526, 4, T_Sinc, T_Sinc_UGRG, 399.3, hit, 2, 0
527, 4, T_Scon, T_Scon_DGRG, 1194.7, hit, 2, 2
528, 4, T_Sinc, T_Sinc_DRLR, 378.2, hit, 1, 0
529, 4, T_Sinc, T_Sinc_UGRG, 401.5, hit, 2, 0
530, 4, T_Sinc, T_Sinc_DRLR, 357.0, hit, 1, 0
531, 4, T_Scon, T_Scon_DGRG, 440.5, hit, 2, 0
532, 4, T_Sinc, T_Sinc_DRLR, 391.9, hit, 1, 0
533, 4, T_Sinc, T_Sinc_UGRG, 591.3, hit, 2, 0
534, 4, T_Sinc, T_Sinc_DRLR, 338.7, hit, 1, 0
535, 4, T_Sinc, T_Sinc_DRLR, 482.2, hit, 1, 0
536, 4, T_Sinc, T_Sinc_DRLR, 409.7, hit, 1, 0
537, 4, T_Scon, T_Scon_URLR, 481.0, hit, 1, 0
538, 4, T_Scon, T_Scon_URLR, 368.5, hit, 1, 0
539, 4, T_Scon, T_Scon_DGRG, 415.9, hit, 2, 0
540, 4, T_Scon, T_Scon_DGRG, 475.4, hit, 2, 0
541, 4, T_Scon, T_Scon_URLR, 626.6, hit, 1, 0
542, 4, T_Sinc, T_Sinc_DRLR, 434.0, hit, 1, 0
543, 4, T_Scon, T_Scon_DGRG, 377.5, hit, 2, 0
544, 4, T_Scon, T_Scon_DGRG, 292.8, hit, 2, 0
545, 4, T_Sinc, T_Sinc_UGRG, 404.3, hit, 2, 0
546, 4, T_Sinc, T_Sinc_UGRG, 439.7, hit, 2, 0
547, 4, T_Scon, T_Scon_DGRG, 379.2, hit, 2, 0
548, 4, T_Sinc, T_Sinc_UGRG, 462.6, incorrect, 1, 1
549, 4, T_Sinc, T_Sinc_UGRG, 378.0, hit, 2, 0
550, 4, T_Sinc, T_Sinc_DRLR, 325.5, hit, 1, 0
551, 4, T_Sinc, T_Sinc_DRLR, 393.0, hit, 1, 0
552, 4, T_Sinc, T_Sinc_DRLR, 464.3, hit, 1, 0
553, 4, T_Scon, T_Scon_URLR, 419.8, hit, 1, 0
554, 4, T_Scon, T_Scon_URLR, 363.2, hit, 1, 0
555, 4, T_Scon, T_Scon_DGRG, 462.7, hit, 2, 0
556, 4, T_Sinc, T_Sinc_DRLR, 466.1, hit, 1, 0
557, 4, T_Scon, T_Scon_URLR, 389.5, hit, 1, 0
558, 4, T_Scon, T_Scon_DGRG, 653.0, hit, 2, 0
559, 4, T_Sinc, T_Sinc_UGRG, 624.4, hit, 2, 0
560, 4, T_Scon, T_Scon_DGRG, 539.8, hit, 2, 0
561, 4, T_Scon, T_Scon_DGRG, 507.3, hit, 2, 0
562, 4, T_Scon, T_Scon_URLR, 534.7, hit, 1, 0
563, 4, T_Scon, T_Scon_URLR, 410.2, hit, 1, 0
564, 4, T_Scon, T_Scon_URLR, 325.6, hit, 1, 0
565, 4, T_Scon, T_Scon_DGRG, 337.0, hit, 2, 0
566, 4, T_Sinc, T_Sinc_UGRG, 432.5, hit, 2, 0
567, 4, T_Scon, T_Scon_DGRG, 404.0, hit, 2, 0
568, 4, T_Scon, T_Scon_DGRG, 687.3, hit, 2, 0
569, 4, T_Scon, T_Scon_URLR, 530.8, hit, 1, 0
570, 4, T_Sinc, T_Sinc_UGRG, 430.2, hit, 2, 0
571, 4, T_Scon, T_Scon_DGRG, 401.7, hit, 2, 0
572, 4, T_Sinc, T_Sinc_DRLR, 381.1, hit, 1, 0
573, 4, T_Scon, T_Scon_DGRG, 592.5, hit, 2, 0
574, 4, T_Sinc, T_Sinc_DRLR, 564.0, hit, 1, 0
575, 4, T_Sinc, T_Sinc_UGRG, 711.4, hit, 2, 0
576, 4, T_Scon, T_Scon_DGRG, 566.9, hit, 2, 0
577, 5, T_Scon, T_Scon_URLR, 623.3, hit, 1, 0
578, 5, T_Sinc, T_Sinc_UGRG, 634.8, hit, 2, 0
579, 5, T_Scon, T_Scon_DGRG, 438.1, hit, 2, 0
580, 5, T_Scon, T_Scon_DGRG, 525.6, incorrect, 1, 1
581, 5, T_Sinc, T_Sinc_UGRG, 705.0, hit, 2, 0
582, 5, T_Scon, T_Scon_URLR, 360.4, hit, 1, 0
583, 5, T_Scon, T_Scon_DGRG, 363.9, hit, 2, 0
584, 5, T_Sinc, T_Sinc_DRLR, 411.3, hit, 1, 0
585, 5, T_Sinc, T_Sinc_UGRG, 506.8, hit, 2, 0
586, 5, T_Scon, T_Scon_URLR, 346.2, hit, 1, 0
587, 5, T_Sinc, T_Sinc_UGRG, 285.6, hit, 2, 0
588, 5, T_Scon, T_Scon_DGRG, 489.1, hit, 2, 0
589, 5, T_Sinc, T_Sinc_UGRG, 540.5, hit, 2, 0
590, 5, T_Sinc, T_Sinc_UGRG, 407.9, hit, 2, 0
591, 5, T_Scon, T_Scon_URLR, 299.4, hit, 1, 0
592, 5, T_Sinc, T_Sinc_UGRG, 326.8, hit, 2, 0
593, 5, T_Scon, T_Scon_DGRG, 338.3, hit, 2, 0
594, 5, T_Sinc, T_Sinc_DRLR, 365.6, hit, 1, 0
595, 5, T_Sinc, T_Sinc_DRLR, 429.1, incorrect, 2, 1
596, 5, T_Sinc, T_Sinc_DRLR, 464.6, hit, 1, 0
597, 5, T_Sinc, T_Sinc_UGRG, 380.0, hit, 2, 0
598, 5, T_Scon, T_Scon_URLR, 415.4, hit, 1, 0
599, 5, T_Scon, T_Scon_DGRG, 570.9, hit, 2, 0
600, 5, T_Sinc, T_Sinc_DRLR, 470.3, hit, 1, 0
601, 5, T_Scon, T_Scon_DGRG, 297.8, hit, 2, 0
602, 5, T_Scon, T_Scon_URLR, 461.2, hit, 1, 0
603, 5, T_Sinc, T_Sinc_UGRG, 384.6, hit, 2, 0
604, 5, T_Sinc, T_Sinc_DRLR, 356.1, hit, 1, 0
605, 5, T_Sinc, T_Sinc_UGRG, 351.5, hit, 2, 0
606, 5, T_Scon, T_Scon_DGRG, 542.9, hit, 2, 0
607, 5, T_Scon, T_Scon_DGRG, 538.4, hit, 2, 0
608, 5, T_Sinc, T_Sinc_UGRG, 597.8, hit, 2, 0
609, 5, T_Scon, T_Scon_DGRG, 441.3, hit, 2, 0
610, 5, T_Scon, T_Scon_URLR, 364.8, hit, 1, 0
611, 5, T_Sinc, T_Sinc_DRLR, 692.1, hit, 1, 0
612, 5, T_Scon, T_Scon_URLR, 407.6, hit, 1, 0
613, 5, T_Scon, T_Scon_DGRG, 618.8, hit, 2, 0
614, 5, T_Sinc, T_Sinc_UGRG, 434.2, hit, 2, 0
615, 5, T_Sinc, T_Sinc_DRLR, 357.6, hit, 1, 0
616, 5, T_Scon, T_Scon_DGRG, 349.1, hit, 2, 0
617, 5, T_Scon, T_Scon_DGRG, 460.4, hit, 2, 0
618, 5, T_Sinc, T_Sinc_DRLR, 327.9, hit, 1, 0
619, 5, T_Sinc, T_Sinc_DRLR, 475.4, hit, 1, 0
620, 5, T_Sinc, T_Sinc_UGRG, 366.8, hit, 2, 0
621, 5, T_Sinc, T_Sinc_DRLR, 314.3, hit, 1, 0
622, 5, T_Sinc, T_Sinc_UGRG, 309.7, hit, 2, 0
623, 5, T_Scon, T_Scon_URLR, 525.1, hit, 1, 0
624, 5, T_Sinc, T_Sinc_UGRG, 440.6, incorrect, 1, 1
625, 5, T_Sinc, T_Sinc_UGRG, 416.1, hit, 2, 0
626, 5, T_Scon, T_Scon_URLR, 411.4, hit, 1, 0
627, 5, T_Sinc, T_Sinc_UGRG, 502.9, hit, 2, 0
628, 5, T_Sinc, T_Sinc_UGRG, 478.3, hit, 2, 0
629, 5, T_Scon, T_Scon_URLR, 457.7, hit, 1, 0
630, 5, T_Sinc, T_Sinc_DRLR, 561.2, hit, 1, 0
631, 5, T_Sinc, T_Sinc_UGRG, 564.6, hit, 2, 0
632, 5, T_Scon, T_Scon_DGRG, 632.1, hit, 2, 0
633, 5, T_Scon, T_Scon_DGRG, 527.5, hit, 2, 0
634, 5, T_Scon, T_Scon_DGRG, 566.9, hit, 2, 0
635, 5, T_Sinc, T_Sinc_UGRG, 378.4, incorrect, 1, 1
636, 5, T_Scon, T_Scon_DGRG, 597.8, hit, 2, 0
637, 5, T_Scon, T_Scon_URLR, 369.2, hit, 1, 0
638, 5, T_Sinc, T_Sinc_DRLR, 424.6, hit, 1, 0
639, 5, T_Scon, T_Scon_DGRG, 476.1, hit, 2, 0
640, 5, T_Sinc, T_Sinc_UGRG, 659.6, hit, 2, 0
641, 5, T_Scon, T_Scon_DGRG, 658.9, hit, 2, 0
642, 5, T_Sinc, T_Sinc_DRLR, 370.4, hit, 1, 0
643, 5, T_Scon, T_Scon_DGRG, 517.9, hit, 2, 0
644, 5, T_Sinc, T_Sinc_DRLR, 369.3, hit, 1, 0
645, 5, T_Scon, T_Scon_URLR, 632.7, hit, 1, 0
646, 5, T_Sinc, T_Sinc_UGRG, 704.1, hit, 2, 0
647, 5, T_Sinc, T_Sinc_DRLR, 491.6, hit, 1, 0
648, 5, T_Scon, T_Scon_URLR, 555.1, hit, 1, 0
649, 5, T_Scon, T_Scon_DGRG, 686.3, hit, 2, 0
650, 5, T_Scon, T_Scon_URLR, 521.6, hit, 1, 0
651, 5, T_Sinc, T_Sinc_UGRG, 565.1, hit, 2, 0
652, 5, T_Sinc, T_Sinc_DRLR, 376.6, hit, 1, 0
653, 5, T_Sinc, T_Sinc_UGRG, 699.9, hit, 2, 0
654, 5, T_Scon, T_Scon_URLR, 751.4, hit, 1, 0
655, 5, T_Scon, T_Scon_DGRG, 690.8, hit, 2, 0
656, 5, T_Sinc, T_Sinc_DRLR, 470.3, hit, 1, 0
657, 5, T_Scon, T_Scon_DGRG, 921.7, hit, 2, 2
658, 5, T_Sinc, T_Sinc_UGRG, 517.1, hit, 2, 0
659, 5, T_Scon, T_Scon_DGRG, 608.5, hit, 2, 0
660, 5, T_Scon, T_Scon_DGRG, 583.9, hit, 2, 0
661, 5, T_Scon, T_Scon_URLR, 407.4, hit, 1, 0
662, 5, T_Sinc, T_Sinc_DRLR, 482.9, hit, 1, 0
663, 5, T_Sinc, T_Sinc_DRLR, 382.2, hit, 1, 0
664, 5, T_Scon, T_Scon_URLR, 389.7, hit, 1, 0
665, 5, T_Scon, T_Scon_DGRG, 605.2, hit, 2, 0
666, 5, T_Sinc, T_Sinc_UGRG, 456.6, hit, 2, 0
667, 5, T_Scon, T_Scon_URLR, 388.1, hit, 1, 0
668, 5, T_Scon, T_Scon_URLR, 443.5, hit, 1, 0
669, 5, T_Sinc, T_Sinc_DRLR, 382.9, hit, 1, 0
670, 5, T_Sinc, T_Sinc_DRLR, 434.4, hit, 1, 0
671, 5, T_Sinc, T_Sinc_UGRG, 629.7, hit, 2, 0
672, 5, T_Sinc, T_Sinc_UGRG, 545.3, hit, 2, 0
673, 5, T_Sinc, T_Sinc_UGRG, 524.7, hit, 2, 0
674, 5, T_Sinc, T_Sinc_DRLR, 608.1, hit, 1, 0
675, 5, T_Sinc, T_Sinc_UGRG, 751.6, hit, 2, 0
676, 5, T_Sinc, T_Sinc_UGRG, 618.9, hit, 2, 0
677, 5, T_Sinc, T_Sinc_DRLR, 550.4, hit, 1, 0
678, 5, T_Scon, T_Scon_URLR, 401.9, hit, 1, 0
679, 5, T_Scon, T_Scon_URLR, 405.3, hit, 1, 0
680, 5, T_Sinc, T_Sinc_UGRG, 384.8, hit, 2, 0
681, 5, T_Scon, T_Scon_URLR, 436.1, incorrect, 2, 1
682, 5, T_Sinc, T_Sinc_DRLR, 723.6, hit, 1, 0
683, 5, T_Scon, T_Scon_URLR, 415.1, hit, 1, 0
684, 5, T_Sinc, T_Sinc_DRLR, 346.5, hit, 1, 0
685, 5, T_Scon, T_Scon_URLR, 457.6, hit, 1, 0
686, 5, T_Scon, T_Scon_DGRG, 441.1, hit, 2, 0
687, 5, T_Scon, T_Scon_URLR, 440.5, hit, 1, 0
688, 5, T_Scon, T_Scon_URLR, 443.9, hit, 1, 0
689, 5, T_Scon, T_Scon_URLR, 355.4, hit, 1, 0
690, 5, T_Scon, T_Scon_URLR, 334.8, hit, 1, 0
691, 5, T_Scon, T_Scon_URLR, 250.3, hit, 1, 0
692, 5, T_Sinc, T_Sinc_DRLR, 337.7, hit, 1, 0
693, 5, T_Scon, T_Scon_DGRG, 385.1, hit, 2, 0
694, 5, T_Scon, T_Scon_URLR, 300.6, hit, 1, 0
695, 5, T_Scon, T_Scon_URLR, 272.0, hit, 1, 0
696, 5, T_Scon, T_Scon_DGRG, 411.4, hit, 2, 0
697, 5, T_Scon, T_Scon_URLR, 390.9, hit, 1, 0
698, 5, T_Scon, T_Scon_URLR, 390.3, hit, 1, 0
699, 5, T_Scon, T_Scon_DGRG, 453.8, hit, 2, 0
700, 5, T_Sinc, T_Sinc_DRLR, 405.2, hit, 1, 0
701, 5, T_Sinc, T_Sinc_DRLR, 416.6, hit, 1, 0
702, 5, T_Scon, T_Scon_DGRG, 572.1, hit, 2, 0
703, 5, T_Sinc, T_Sinc_DRLR, 415.5, hit, 1, 0
704, 5, T_Scon, T_Scon_URLR, 430.9, hit, 1, 0
705, 5, T_Sinc, T_Sinc_UGRG, 450.4, hit, 2, 0
706, 5, T_Sinc, T_Sinc_DRLR, 345.8, hit, 1, 0
707, 5, T_Scon, T_Scon_DGRG, 517.3, hit, 2, 0
708, 5, T_Scon, T_Scon_DGRG, 480.6, hit, 2, 0
709, 5, T_Scon, T_Scon_DGRG, 496.1, hit, 2, 0
710, 5, T_Sinc, T_Sinc_DRLR, 611.6, hit, 1, 0
711, 5, T_Sinc, T_Sinc_DRLR, 399.0, hit, 1, 0
712, 5, T_Scon, T_Scon_DGRG, 626.4, hit, 2, 0
713, 5, T_Sinc, T_Sinc_DRLR, 401.8, hit, 1, 0
714, 5, T_Sinc, T_Sinc_UGRG, 433.3, incorrect, 1, 1
715, 5, T_Sinc, T_Sinc_UGRG, 520.7, hit, 2, 0
716, 5, T_Scon, T_Scon_DGRG, 508.1, hit, 2, 0
717, 5, T_Sinc, T_Sinc_DRLR, 423.6, hit, 1, 0
718, 5, T_Scon, T_Scon_URLR, 359.0, hit, 1, 0
719, 5, T_Sinc, T_Sinc_DRLR, 394.5, hit, 1, 0
720, 5, T_Sinc, T_Sinc_UGRG, 486.0, hit, 2, 0
721, 6, T_Sinc, T_Sinc_UGRG, 668.1, incorrect, 1, 1
722, 6, T_Scon, T_Scon_DGRG, 639.5, hit, 2, 0
723, 6, T_Sinc, T_Sinc_UGRG, 478.9, hit, 2, 0
724, 6, T_Sinc, T_Sinc_UGRG, 450.3, hit, 2, 0
725, 6, T_Sinc, T_Sinc_DRLR, 285.8, hit, 1, 0
726, 6, T_Scon, T_Scon_DGRG, 593.2, hit, 2, 0
727, 6, T_Sinc, T_Sinc_DRLR, 368.6, hit, 1, 0
728, 6, T_Sinc, T_Sinc_UGRG, 492.1, hit, 2, 0
729, 6, T_Sinc, T_Sinc_UGRG, 455.6, hit, 2, 0
730, 6, T_Scon, T_Scon_DGRG, 594.9, hit, 2, 0
731, 6, T_Sinc, T_Sinc_DRLR, 494.4, hit, 1, 0
732, 6, T_Scon, T_Scon_URLR, 461.9, hit, 1, 0
733, 6, T_Scon, T_Scon_DGRG, 577.3, hit, 2, 0
734, 6, T_Sinc, T_Sinc_DRLR, 604.7, hit, 1, 0
735, 6, T_Scon, T_Scon_DGRG, 388.1, hit, 2, 0
736, 6, T_Scon, T_Scon_DGRG, 431.6, hit, 2, 0
737, 6, T_Scon, T_Scon_URLR, 339.1, hit, 1, 0
738, 6, T_Scon, T_Scon_DGRG, 262.4, hit, 2, 0
739, 6, T_Scon, T_Scon_DGRG, 349.9, hit, 2, 0
740, 6, T_Sinc, T_Sinc_UGRG, 369.3, incorrect, 1, 1
741, 6, T_Scon, T_Scon_URLR, 344.8, hit, 1, 0
742, 6, T_Sinc, T_Sinc_UGRG, 440.2, hit, 2, 0
743, 6, T_Sinc, T_Sinc_DRLR, 447.6, hit, 1, 0
744, 6, T_Sinc, T_Sinc_DRLR, 503.1, hit, 1, 0
745, 6, T_Sinc, T_Sinc_DRLR, 390.6, hit, 1, 0
746, 6, T_Sinc, T_Sinc_UGRG, 338.0, hit, 2, 0
747, 6, T_Scon, T_Scon_URLR, 373.4, hit, 1, 0
748, 6, T_Sinc, T_Sinc_DRLR, 388.9, incorrect, 2, 1
749, 6, T_Sinc, T_Sinc_UGRG, 608.3, hit, 2, 0
750, 6, T_Sinc, T_Sinc_UGRG, 671.7, hit, 2, 0
751, 6, T_Scon, T_Scon_DGRG, 563.1, hit, 2, 0
752, 6, T_Scon, T_Scon_DGRG, 718.6, hit, 2, 0
753, 6, T_Sinc, T_Sinc_UGRG, 474.1, hit, 2, 0
754, 6, T_Sinc, T_Sinc_DRLR, 433.5, hit, 1, 0
755, 6, T_Sinc, T_Sinc_UGRG, 656.9, hit, 2, 0
756, 6, T_Sinc, T_Sinc_DRLR, 468.3, hit, 1, 0
757, 6, T_Scon, T_Scon_URLR, 479.6, hit, 1, 0
758, 6, T_Sinc, T_Sinc_UGRG, 314.9, hit, 2, 0
759, 6, T_Scon, T_Scon_DGRG, 522.4, hit, 2, 0
760, 6, T_Scon, T_Scon_DGRG, 393.9, hit, 2, 0
761, 6, T_Sinc, T_Sinc_DRLR, 373.2, hit, 1, 0
762, 6, T_Sinc, T_Sinc_DRLR, 408.7, hit, 1, 0
763, 6, T_Sinc, T_Sinc_DRLR, 540.1, hit, 1, 0
764, 6, T_Sinc, T_Sinc_DRLR, 351.6, hit, 1, 0
765, 6, T_Sinc, T_Sinc_UGRG, 579.0, hit, 2, 0
766, 6, T_Scon, T_Scon_URLR, 470.4, hit, 1, 0
767, 6, T_Scon, T_Scon_URLR, 561.9, hit, 1, 0
768, 6, T_Sinc, T_Sinc_UGRG, 541.3, hit, 2, 0
769, 6, T_Scon, T_Scon_DGRG, 448.7, hit, 2, 0
770, 6, T_Scon, T_Scon_DGRG, 1060.1, hit, 2, 2
771, 6, T_Sinc, T_Sinc_DRLR, 591.6, hit, 1, 0
772, 6, T_Sinc, T_Sinc_DRLR, 491.1, hit, 1, 0
773, 6, T_Scon, T_Scon_DGRG, 678.4, hit, 2, 0
774, 6, T_Sinc, T_Sinc_DRLR, 625.9, hit, 1, 0
775, 6, T_Scon, T_Scon_DGRG, 693.3, hit, 2, 0
776, 6, T_Scon, T_Scon_DGRG, 880.8, hit, 2, 0
777, 6, T_Sinc, T_Sinc_DRLR, 636.3, hit, 1, 0
778, 6, T_Scon, T_Scon_DGRG, 479.7, hit, 2, 0
779, 6, T_Sinc, T_Sinc_DRLR, 515.1, hit, 1, 0
780, 6, T_Sinc, T_Sinc_UGRG, 514.5, hit, 2, 0
781, 6, T_Sinc, T_Sinc_DRLR, 494.0, hit, 1, 0
782, 6, T_Scon, T_Scon_URLR, 577.3, hit, 1, 0
783, 6, T_Sinc, T_Sinc_DRLR, 528.8, hit, 1, 0
784, 6, T_Sinc, T_Sinc_DRLR, 464.3, hit, 1, 0
785, 6, T_Scon, T_Scon_DGRG, 363.7, hit, 2, 0
786, 6, T_Scon, T_Scon_URLR, 451.1, hit, 1, 0
787, 6, T_Sinc, T_Sinc_UGRG, 558.6, hit, 2, 0
788, 6, T_Scon, T_Scon_URLR, 426.0, hit, 1, 0
789, 6, T_Sinc, T_Sinc_UGRG, 437.5, hit, 2, 0
790, 6, T_Sinc, T_Sinc_UGRG, 556.9, hit, 2, 0
791, 6, T_Scon, T_Scon_URLR, 524.3, hit, 1, 0
792, 6, T_Sinc, T_Sinc_DRLR, 415.8, hit, 1, 0
793, 6, T_Scon, T_Scon_DGRG, 583.0, hit, 2, 0
794, 6, T_Sinc, T_Sinc_UGRG, 506.3, hit, 2, 0
795, 6, T_Scon, T_Scon_DGRG, 457.8, hit, 2, 0
796, 6, T_Sinc, T_Sinc_DRLR, 365.2, hit, 1, 0
797, 6, T_Sinc, T_Sinc_DRLR, 356.6, hit, 1, 0
798, 6, T_Sinc, T_Sinc_UGRG, 456.1, hit, 2, 0
799, 6, T_Scon, T_Scon_URLR, 395.5, hit, 1, 0
800, 6, T_Scon, T_Scon_URLR, 519.0, hit, 1, 0
801, 6, T_Scon, T_Scon_URLR, 394.4, hit, 1, 0
802, 6, T_Sinc, T_Sinc_DRLR, 469.8, hit, 1, 0
803, 6, T_Scon, T_Scon_URLR, 345.3, hit, 1, 0
804, 6, T_Sinc, T_Sinc_UGRG, 404.8, hit, 2, 0
805, 6, T_Scon, T_Scon_URLR, 360.1, hit, 1, 0
806, 6, T_Scon, T_Scon_URLR, 379.6, hit, 1, 0
807, 6, T_Scon, T_Scon_DGRG, 415.0, hit, 2, 0
808, 6, T_Scon, T_Scon_URLR, 334.4, hit, 1, 0
809, 6, T_Sinc, T_Sinc_DRLR, 441.9, hit, 1, 0
810, 6, T_Scon, T_Scon_URLR, 453.3, hit, 1, 0
811, 6, T_Sinc, T_Sinc_DRLR, 352.8, hit, 1, 0
812, 6, T_Scon, T_Scon_DGRG, 400.2, hit, 2, 0
813, 6, T_Sinc, T_Sinc_UGRG, 343.6, hit, 2, 0
814, 6, T_Scon, T_Scon_DGRG, 451.1, hit, 2, 0
815, 6, T_Scon, T_Scon_URLR, 506.5, hit, 1, 0
816, 6, T_Scon, T_Scon_DGRG, 578.0, hit, 2, 0
817, 6, T_Sinc, T_Sinc_DRLR, 525.4, hit, 1, 0
818, 6, T_Sinc, T_Sinc_UGRG, 464.8, hit, 2, 0
819, 6, T_Scon, T_Scon_URLR, 404.3, hit, 1, 0
820, 6, T_Sinc, T_Sinc_UGRG, 391.7, hit, 2, 0
821, 6, T_Scon, T_Scon_URLR, 303.1, hit, 1, 0
822, 6, T_Scon, T_Scon_URLR, 598.6, hit, 1, 0
823, 6, T_Scon, T_Scon_URLR, 506.0, hit, 1, 0
824, 6, T_Scon, T_Scon_URLR, 341.5, hit, 1, 0
825, 6, T_Scon, T_Scon_URLR, 372.9, hit, 1, 0
826, 6, T_Sinc, T_Sinc_UGRG, 524.3, hit, 2, 0
827, 6, T_Scon, T_Scon_DGRG, 523.8, hit, 2, 0
828, 6, T_Sinc, T_Sinc_DRLR, 347.2, hit, 1, 0
829, 6, T_Scon, T_Scon_DGRG, 574.4, hit, 2, 0
830, 6, T_Scon, T_Scon_URLR, 453.8, hit, 1, 0
831, 6, T_Sinc, T_Sinc_DRLR, 525.3, hit, 1, 0
832, 6, T_Sinc, T_Sinc_UGRG, 488.6, hit, 2, 0
833, 6, T_Scon, T_Scon_URLR, 328.1, hit, 1, 0
834, 6, T_Sinc, T_Sinc_DRLR, 523.5, hit, 1, 0
835, 6, T_Scon, T_Scon_URLR, 415.0, hit, 1, 0
836, 6, T_Sinc, T_Sinc_UGRG, 498.4, hit, 2, 0
837, 6, T_Scon, T_Scon_URLR, 297.8, hit, 1, 0
838, 6, T_Sinc, T_Sinc_UGRG, 653.3, hit, 2, 0
839, 6, T_Scon, T_Scon_DGRG, 496.8, hit, 2, 0
840, 6, T_Scon, T_Scon_DGRG, 484.1, hit, 2, 0
841, 6, T_Scon, T_Scon_DGRG, 447.6, hit, 2, 0
842, 6, T_Sinc, T_Sinc_UGRG, 555.0, hit, 2, 0
843, 6, T_Sinc, T_Sinc_UGRG, 686.5, hit, 2, 0
844, 6, T_Scon, T_Scon_URLR, 433.9, hit, 1, 0
845, 6, T_Sinc, T_Sinc_UGRG, 633.3, hit, 2, 0
846, 6, T_Scon, T_Scon_DGRG, 588.8, hit, 2, 0
847, 6, T_Scon, T_Scon_URLR, 680.3, hit, 1, 0
848, 6, T_Sinc, T_Sinc_DRLR, 587.6, hit, 1, 0
849, 6, T_Scon, T_Scon_DGRG, 547.1, hit, 2, 0
850, 6, T_Scon, T_Scon_DGRG, 590.6, hit, 2, 0
851, 6, T_Sinc, T_Sinc_UGRG, 530.0, hit, 2, 0
852, 6, T_Sinc, T_Sinc_UGRG, 617.4, hit, 2, 0
853, 6, T_Sinc, T_Sinc_UGRG, 436.8, hit, 2, 0
854, 6, T_Scon, T_Scon_URLR, 508.3, hit, 1, 0
855, 6, T_Sinc, T_Sinc_DRLR, 687.8, hit, 1, 0
856, 6, T_Scon, T_Scon_URLR, 595.1, hit, 1, 0
857, 6, T_Scon, T_Scon_DGRG, 398.6, hit, 2, 0
858, 6, T_Sinc, T_Sinc_DRLR, 634.1, incorrect, 2, 1
859, 6, T_Scon, T_Scon_DGRG, 629.5, hit, 2, 0
860, 6, T_Sinc, T_Sinc_DRLR, 441.0, hit, 1, 0
861, 6, T_Scon, T_Scon_URLR, 556.3, hit, 1, 0
862, 6, T_Scon, T_Scon_DGRG, 579.8, hit, 2, 0
863, 6, T_Sinc, T_Sinc_UGRG, 463.3, incorrect, 1, 1
864, 6, T_Scon, T_Scon_URLR, 430.7, hit, 1, 0
865, 7, T_Scon, T_Scon_DGRG, 572.4, hit, 2, 0
866, 7, T_Sinc, T_Sinc_UGRG, 427.9, hit, 2, 0
867, 7, T_Sinc, T_Sinc_UGRG, 375.3, hit, 2, 0
868, 7, T_Scon, T_Scon_DGRG, 502.7, hit, 2, 0
869, 7, T_Scon, T_Scon_URLR, 438.1, hit, 1, 0
870, 7, T_Sinc, T_Sinc_DRLR, 473.6, hit, 1, 0
871, 7, T_Scon, T_Scon_DGRG, 761.1, hit, 2, 0
872, 7, T_Sinc, T_Sinc_UGRG, 568.4, hit, 2, 0
873, 7, T_Sinc, T_Sinc_UGRG, 571.9, hit, 2, 0
874, 7, T_Scon, T_Scon_DGRG, 455.4, hit, 2, 0
875, 7, T_Sinc, T_Sinc_DRLR, 494.8, hit, 1, 0
876, 7, T_Sinc, T_Sinc_DRLR, 666.2, hit, 1, 0
877, 7, T_Scon, T_Scon_URLR, 465.7, hit, 1, 0
878, 7, T_Sinc, T_Sinc_DRLR, 429.1, hit, 1, 0
879, 7, T_Sinc, T_Sinc_UGRG, 528.6, hit, 2, 0
880, 7, T_Scon, T_Scon_URLR, 311.9, hit, 1, 0
881, 7, T_Sinc, T_Sinc_UGRG, 539.4, hit, 2, 0
882, 7, T_Scon, T_Scon_DGRG, 526.9, hit, 2, 0
883, 7, T_Sinc, T_Sinc_DRLR, 842.3, hit, 1, 0
884, 7, T_Scon, T_Scon_URLR, 477.7, hit, 1, 0
885, 7, T_Scon, T_Scon_URLR, 329.1, hit, 1, 0
886, 7, T_Sinc, T_Sinc_UGRG, 324.6, hit, 2, 0
887, 7, T_Sinc, T_Sinc_DRLR, 336.1, incorrect, 2, 1
888, 7, T_Sinc, T_Sinc_UGRG, 455.4, hit, 2, 0
889, 7, T_Sinc, T_Sinc_DRLR, 554.9, hit, 1, 0
890, 7, T_Sinc, T_Sinc_UGRG, 506.4, hit, 2, 0
891, 7, T_Sinc, T_Sinc_UGRG, 1285.8, hit, 2, 2
892, 7, T_Scon, T_Scon_DGRG, 553.3, hit, 2, 0
893, 7, T_Sinc, T_Sinc_UGRG, 412.7, hit, 2, 0
894, 7, T_Sinc, T_Sinc_UGRG, 448.1, hit, 2, 0
895, 7, T_Scon, T_Scon_URLR, 315.6, hit, 1, 0
896, 7, T_Scon, T_Scon_URLR, 350.9, hit, 1, 0
897, 7, T_Scon, T_Scon_URLR, 434.4, hit, 1, 0
898, 7, T_Scon, T_Scon_URLR, 361.9, hit, 1, 0
899, 7, T_Scon, T_Scon_URLR, 381.3, hit, 1, 0
900, 7, T_Sinc, T_Sinc_UGRG, 472.7, hit, 2, 0
901, 7, T_Sinc, T_Sinc_UGRG, 607.9, hit, 2, 0
902, 7, T_Sinc, T_Sinc_DRLR, 339.4, hit, 1, 0
903, 7, T_Sinc, T_Sinc_UGRG, 606.7, hit, 2, 0
904, 7, T_Sinc, T_Sinc_DRLR, 534.2, hit, 1, 0
905, 7, T_Scon, T_Scon_URLR, 417.7, hit, 1, 0
906, 7, T_Scon, T_Scon_URLR, 377.1, hit, 1, 0
907, 7, T_Scon, T_Scon_DGRG, 460.5, hit, 2, 0
908, 7, T_Sinc, T_Sinc_UGRG, 411.9, hit, 2, 0
909, 7, T_Scon, T_Scon_DGRG, 383.4, hit, 2, 0
910, 7, T_Sinc, T_Sinc_DRLR, 314.9, hit, 1, 0
911, 7, T_Sinc, T_Sinc_UGRG, 622.2, hit, 2, 0
912, 7, T_Sinc, T_Sinc_DRLR, 377.7, hit, 1, 0
913, 7, T_Sinc, T_Sinc_UGRG, 437.1, hit, 2, 0
914, 7, T_Sinc, T_Sinc_UGRG, 416.6, hit, 2, 0
915, 7, T_Scon, T_Scon_DGRG, 436.0, hit, 2, 0
916, 7, T_Sinc, T_Sinc_UGRG, 391.4, hit, 2, 0
917, 7, T_Scon, T_Scon_URLR, 714.9, hit, 1, 0
918, 7, T_Sinc, T_Sinc_UGRG, 370.4, incorrect, 1, 1
919, 7, T_Sinc, T_Sinc_DRLR, 485.7, hit, 1, 0
920, 7, T_Sinc, T_Sinc_UGRG, 713.2, hit, 2, 0
921, 7, T_Scon, T_Scon_DGRG, 648.7, hit, 2, 0
922, 7, T_Scon, T_Scon_DGRG, 500.1, hit, 2, 0
923, 7, T_Scon, T_Scon_DGRG, 375.5, hit, 2, 0
924, 7, T_Scon, T_Scon_DGRG, 626.9, hit, 2, 0
925, 7, T_Sinc, T_Sinc_DRLR, 506.4, hit, 1, 0
926, 7, T_Sinc, T_Sinc_UGRG, 457.9, hit, 2, 0
927, 7, T_Scon, T_Scon_URLR, 529.2, hit, 1, 0
928, 7, T_Sinc, T_Sinc_DRLR, 848.7, hit, 1, 0
929, 7, T_Scon, T_Scon_URLR, 504.1, hit, 1, 0
930, 7, T_Scon, T_Scon_DGRG, 395.6, hit, 2, 0
931, 7, T_Scon, T_Scon_URLR, 423.0, hit, 1, 0
932, 7, T_Sinc, T_Sinc_DRLR, 402.4, hit, 1, 0
933, 7, T_Scon, T_Scon_URLR, 437.9, hit, 1, 0
934, 7, T_Scon, T_Scon_URLR, 393.3, hit, 1, 0
935, 7, T_Sinc, T_Sinc_DRLR, 492.7, hit, 1, 0
936, 7, T_Sinc, T_Sinc_DRLR, 376.2, hit, 1, 0
937, 7, T_Scon, T_Scon_DGRG, 679.4, hit, 2, 0
938, 7, T_Scon, T_Scon_URLR, 522.7, hit, 1, 0
939, 7, T_Scon, T_Scon_URLR, 546.2, hit, 1, 0
940, 7, T_Sinc, T_Sinc_UGRG, 437.7, hit, 2, 0
941, 7, T_Scon, T_Scon_DGRG, 397.1, incorrect, 1, 1
942, 7, T_Sinc, T_Sinc_UGRG, 576.5, hit, 2, 0
943, 7, T_Scon, T_Scon_URLR, 351.9, hit, 1, 0
944, 7, T_Sinc, T_Sinc_DRLR, 431.4, hit, 1, 0
945, 7, T_Sinc, T_Sinc_DRLR, 378.9, hit, 1, 0
946, 7, T_Scon, T_Scon_DGRG, 662.2, hit, 2, 0
947, 7, T_Scon, T_Scon_URLR, 449.7, hit, 1, 0
948, 7, T_Scon, T_Scon_URLR, 397.1, hit, 1, 0
949, 7, T_Sinc, T_Sinc_UGRG, 464.6, hit, 2, 0
950, 7, T_Scon, T_Scon_DGRG, 588.0, hit, 2, 0
951, 7, T_Scon, T_Scon_DGRG, 471.4, hit, 2, 0
952, 7, T_Scon, T_Scon_URLR, 414.9, hit, 1, 0
953, 7, T_Scon, T_Scon_URLR, 978.3, hit, 1, 2
954, 7, T_Scon, T_Scon_DGRG, 417.8, hit, 2, 0
955, 7, T_Sinc, T_Sinc_UGRG, 505.2, hit, 2, 0
956, 7, T_Sinc, T_Sinc_UGRG, 556.6, hit, 2, 0
957, 7, T_Sinc, T_Sinc_DRLR, 684.1, hit, 1, 0
958, 7, T_Scon, T_Scon_URLR, 475.6, hit, 1, 0
959, 7, T_Scon, T_Scon_DGRG, 458.9, hit, 2, 0
960, 7, T_Sinc, T_Sinc_UGRG, 498.4, hit, 2, 0
961, 7, T_Sinc, T_Sinc_DRLR, 445.8, hit, 1, 0
962, 7, T_Sinc, T_Sinc_DRLR, 405.3, hit, 1, 0
963, 7, T_Scon, T_Scon_URLR, 488.7, hit, 1, 0
964, 7, T_Scon, T_Scon_DGRG, 660.1, hit, 2, 0
965, 7, T_Sinc, T_Sinc_DRLR, 471.6, hit, 1, 0
966, 7, T_Sinc, T_Sinc_DRLR, 427.1, hit, 1, 0
967, 7, T_Sinc, T_Sinc_DRLR, 494.4, hit, 1, 0
968, 7, T_Scon, T_Scon_DGRG, 401.9, hit, 2, 0
969, 7, T_Scon, T_Scon_DGRG, 449.3, hit, 2, 0
970, 7, T_Scon, T_Scon_DGRG, 896.8, hit, 2, 0
971, 7, T_Sinc, T_Sinc_DRLR, 384.2, hit, 1, 0
972, 7, T_Scon, T_Scon_DGRG, 475.6, hit, 2, 0
973, 7, T_Scon, T_Scon_URLR, 390.8, hit, 1, 0
974, 7, T_Scon, T_Scon_DGRG, 402.2, hit, 2, 0
975, 7, T_Scon, T_Scon_URLR, 341.7, hit, 1, 0
976, 7, T_Scon, T_Scon_DGRG, 441.1, hit, 2, 0
977, 7, T_Sinc, T_Sinc_DRLR, 368.5, hit, 1, 0
978, 7, T_Scon, T_Scon_DGRG, 415.9, incorrect, 1, 1
979, 7, T_Scon, T_Scon_DGRG, 339.4, hit, 2, 0
980, 7, T_Scon, T_Scon_URLR, 414.9, hit, 1, 0
981, 7, T_Sinc, T_Sinc_UGRG, 686.3, hit, 2, 0
982, 7, T_Sinc, T_Sinc_UGRG, 417.7, hit, 2, 0
983, 7, T_Sinc, T_Sinc_DRLR, 421.1, hit, 1, 0
984, 7, T_Scon, T_Scon_URLR, 436.6, hit, 1, 0
985, 7, T_Sinc, T_Sinc_UGRG, 532.1, hit, 2, 0
986, 7, T_Sinc, T_Sinc_DRLR, 311.4, hit, 1, 0
987, 7, T_Sinc, T_Sinc_DRLR, 418.9, hit, 1, 0
988, 7, T_Scon, T_Scon_URLR, 454.3, hit, 1, 0
989, 7, T_Scon, T_Scon_URLR, 405.8, hit, 1, 0
990, 7, T_Scon, T_Scon_DGRG, 505.2, hit, 2, 0
991, 7, T_Scon, T_Scon_DGRG, 780.6, hit, 2, 0
992, 7, T_Scon, T_Scon_URLR, 432.1, hit, 1, 0
993, 7, T_Scon, T_Scon_DGRG, 519.6, hit, 2, 0
994, 7, T_Sinc, T_Sinc_UGRG, 498.9, hit, 2, 0
995, 7, T_Scon, T_Scon_DGRG, 462.4, hit, 2, 0
996, 7, T_Sinc, T_Sinc_UGRG, 417.9, hit, 2, 0
997, 7, T_Sinc, T_Sinc_DRLR, 461.3, hit, 1, 0
998, 7, T_Scon, T_Scon_URLR, 344.7, hit, 1, 0
999, 7, T_Sinc, T_Sinc_DRLR, 380.1, hit, 1, 0
1000, 7, T_Scon, T_Scon_DGRG, 435.6, hit, 2, 0
1001, 7, T_Sinc, T_Sinc_UGRG, 495.1, hit, 2, 0
1002, 7, T_Sinc, T_Sinc_DRLR, 502.4, hit, 1, 0
1003, 7, T_Sinc, T_Sinc_DRLR, 537.9, hit, 1, 0
1004, 7, T_Scon, T_Scon_DGRG, 517.3, hit, 2, 0
1005, 7, T_Scon, T_Scon_URLR, 568.8, hit, 1, 0
1006, 7, T_Sinc, T_Sinc_DRLR, 500.2, hit, 1, 0
1007, 7, T_Sinc, T_Sinc_UGRG, 591.6, hit, 2, 0
1008, 7, T_Sinc, T_Sinc_DRLR, 511.1, hit, 1, 0
1009, 8, T_Scon, T_Scon_DGRG, 445.9, hit, 2, 0
1010, 8, T_Sinc, T_Sinc_UGRG, 449.4, hit, 2, 0
1011, 8, T_Sinc, T_Sinc_DRLR, 444.8, hit, 1, 0
1012, 8, T_Scon, T_Scon_DGRG, 744.2, hit, 2, 0
1013, 8, T_Scon, T_Scon_URLR, 395.7, hit, 1, 0
1014, 8, T_Sinc, T_Sinc_DRLR, 407.0, hit, 1, 0
1015, 8, T_Scon, T_Scon_DGRG, 346.5, hit, 2, 0
1016, 8, T_Sinc, T_Sinc_UGRG, 409.9, hit, 2, 0
1017, 8, T_Sinc, T_Sinc_UGRG, 705.4, hit, 2, 0
1018, 8, T_Sinc, T_Sinc_UGRG, 420.8, hit, 2, 0
1019, 8, T_Scon, T_Scon_URLR, 368.2, hit, 1, 0
1020, 8, T_Scon, T_Scon_URLR, 543.7, hit, 1, 0
1021, 8, T_Sinc, T_Sinc_UGRG, 395.1, hit, 2, 0
1022, 8, T_Scon, T_Scon_DGRG, 702.5, hit, 2, 0
1023, 8, T_Scon, T_Scon_URLR, 402.0, hit, 1, 0
1024, 8, T_Sinc, T_Sinc_DRLR, 529.4, hit, 1, 0
1025, 8, T_Scon, T_Scon_URLR, 412.9, hit, 1, 0
1026, 8, T_Sinc, T_Sinc_DRLR, 424.3, hit, 1, 0
1027, 8, T_Scon, T_Scon_URLR, 343.7, hit, 1, 0
1028, 8, T_Sinc, T_Sinc_DRLR, 479.2, hit, 1, 0
1029, 8, T_Scon, T_Scon_URLR, 378.6, hit, 1, 0
1030, 8, T_Sinc, T_Sinc_DRLR, 354.0, hit, 1, 0
1031, 8, T_Scon, T_Scon_DGRG, 433.5, hit, 2, 0
1032, 8, T_Sinc, T_Sinc_DRLR, 732.9, hit, 1, 0
1033, 8, T_Sinc, T_Sinc_DRLR, 424.4, hit, 1, 0
1034, 8, T_Scon, T_Scon_URLR, 467.7, hit, 1, 0
1035, 8, T_Sinc, T_Sinc_DRLR, 383.3, hit, 1, 0
1036, 8, T_Scon, T_Scon_DGRG, 482.7, hit, 2, 0
1037, 8, T_Scon, T_Scon_DGRG, 654.1, hit, 2, 0
1038, 8, T_Sinc, T_Sinc_UGRG, 753.6, hit, 2, 0
1039, 8, T_Sinc, T_Sinc_DRLR, 325.0, hit, 1, 0
1040, 8, T_Sinc, T_Sinc_UGRG, 472.4, hit, 2, 0
1041, 8, T_Scon, T_Scon_URLR, 375.9, hit, 1, 0
1042, 8, T_Scon, T_Scon_DGRG, 515.3, hit, 2, 0
1043, 8, T_Scon, T_Scon_URLR, 362.7, hit, 1, 0
1044, 8, T_Scon, T_Scon_DGRG, 370.1, hit, 2, 0
1045, 8, T_Sinc, T_Sinc_UGRG, 457.4, hit, 2, 0
1046, 8, T_Scon, T_Scon_URLR, 308.7, hit, 1, 0
1047, 8, T_Scon, T_Scon_DGRG, 660.2, hit, 2, 0
1048, 8, T_Scon, T_Scon_DGRG, 767.6, hit, 2, 0
1049, 8, T_Scon, T_Scon_DGRG, 691.0, hit, 2, 0
1050, 8, T_Sinc, T_Sinc_UGRG, 814.5, hit, 2, 0
1051, 8, T_Sinc, T_Sinc_UGRG, 1029.9, hit, 2, 2
1052, 8, T_Scon, T_Scon_DGRG, 577.4, hit, 2, 0
1053, 8, T_Sinc, T_Sinc_UGRG, 560.8, hit, 2, 0
1054, 8, T_Sinc, T_Sinc_UGRG, 748.2, hit, 2, 0
1055, 8, T_Scon, T_Scon_DGRG, 735.7, hit, 2, 0
1056, 8, T_Sinc, T_Sinc_DRLR, 399.1, hit, 1, 0
1057, 8, T_Sinc, T_Sinc_DRLR, 466.6, hit, 1, 0
1058, 8, T_Sinc, T_Sinc_DRLR, 666.0, hit, 1, 0
1059, 8, T_Scon, T_Scon_URLR, 381.4, hit, 1, 0
1060, 8, T_Sinc, T_Sinc_DRLR, 332.9, hit, 1, 0
1061, 8, T_Sinc, T_Sinc_UGRG, 560.3, hit, 2, 0
1062, 8, T_Sinc, T_Sinc_DRLR, 315.7, hit, 1, 0
1063, 8, T_Sinc, T_Sinc_DRLR, 399.2, hit, 1, 0
1064, 8, T_Scon, T_Scon_URLR, 382.7, hit, 1, 0
1065, 8, T_Scon, T_Scon_URLR, 314.0, hit, 1, 0
1066, 8, T_Sinc, T_Sinc_DRLR, 301.5, hit, 1, 0
1067, 8, T_Sinc, T_Sinc_DRLR, 368.9, hit, 1, 0
1068, 8, T_Scon, T_Scon_URLR, 336.4, hit, 1, 0
1069, 8, T_Scon, T_Scon_URLR, 299.9, hit, 1, 0
1070, 8, T_Sinc, T_Sinc_UGRG, 483.2, hit, 2, 0
1071, 8, T_Sinc, T_Sinc_DRLR, 382.7, hit, 1, 0
1072, 8, T_Scon, T_Scon_URLR, 466.2, hit, 1, 0
1073, 8, T_Scon, T_Scon_DGRG, 613.6, hit, 2, 0
1074, 8, T_Sinc, T_Sinc_DRLR, 489.0, hit, 1, 0
1075, 8, T_Scon, T_Scon_URLR, 440.4, hit, 1, 0
1076, 8, T_Sinc, T_Sinc_UGRG, 399.9, hit, 2, 0
1077, 8, T_Scon, T_Scon_URLR, 375.3, incorrect, 2, 1
1078, 8, T_Sinc, T_Sinc_UGRG, 602.7, hit, 2, 0
1079, 8, T_Sinc, T_Sinc_UGRG, 538.2, hit, 2, 0
1080, 8, T_Scon, T_Scon_URLR, 413.6, hit, 1, 0
1081, 8, T_Scon, T_Scon_DGRG, 0.2, miss, 1950209, 1
1082, 8, T_Sinc, T_Sinc_UGRG, 0.1, miss, 1971375, 1
1083, 8, T_Scon, T_Scon_URLR, 887.7, hit, 1, 0
1084, 8, T_Sinc, T_Sinc_DRLR, 627.0, hit, 1, 0
1085, 8, T_Sinc, T_Sinc_DRLR, 418.5, hit, 1, 0
1086, 8, T_Scon, T_Scon_DGRG, 458.0, hit, 2, 0
1087, 8, T_Sinc, T_Sinc_UGRG, 633.3, hit, 2, 0
1088, 8, T_Sinc, T_Sinc_UGRG, 372.9, hit, 2, 0
1089, 8, T_Sinc, T_Sinc_UGRG, 436.3, hit, 2, 0
1090, 8, T_Scon, T_Scon_URLR, 831.7, hit, 1, 0
1091, 8, T_Sinc, T_Sinc_UGRG, 1083.2, hit, 2, 2
1092, 8, T_Scon, T_Scon_URLR, 818.6, hit, 1, 0
1093, 8, T_Sinc, T_Sinc_UGRG, 586.0, hit, 2, 0
1094, 8, T_Sinc, T_Sinc_UGRG, 533.5, hit, 2, 0
1095, 8, T_Sinc, T_Sinc_UGRG, 400.9, hit, 2, 0
1096, 8, T_Sinc, T_Sinc_DRLR, 440.4, hit, 1, 0
1097, 8, T_Scon, T_Scon_URLR, 935.7, hit, 1, 2
1098, 8, T_Scon, T_Scon_URLR, 571.2, hit, 1, 0
1099, 8, T_Sinc, T_Sinc_DRLR, 534.7, hit, 1, 0
1100, 8, T_Sinc, T_Sinc_UGRG, 354.1, hit, 2, 0
1101, 8, T_Sinc, T_Sinc_UGRG, 573.5, hit, 2, 0
1102, 8, T_Scon, T_Scon_DGRG, 340.9, hit, 2, 0
1103, 8, T_Sinc, T_Sinc_UGRG, 552.4, hit, 2, 0
1104, 8, T_Scon, T_Scon_URLR, 427.9, hit, 1, 0
1105, 8, T_Sinc, T_Sinc_UGRG, 527.2, hit, 2, 0
1106, 8, T_Scon, T_Scon_DGRG, 498.7, hit, 2, 0
1107, 8, T_Scon, T_Scon_DGRG, 614.2, hit, 2, 0
1108, 8, T_Scon, T_Scon_DGRG, 361.5, hit, 2, 0
1109, 8, T_Scon, T_Scon_DGRG, 433.0, hit, 2, 0
1110, 8, T_Sinc, T_Sinc_DRLR, 464.4, hit, 1, 0
1111, 8, T_Sinc, T_Sinc_DRLR, 451.9, incorrect, 2, 1
1112, 8, T_Scon, T_Scon_DGRG, 471.4, hit, 2, 0
1113, 8, T_Scon, T_Scon_DGRG, 654.7, hit, 2, 0
1114, 8, T_Scon, T_Scon_URLR, 334.2, hit, 1, 0
1115, 8, T_Sinc, T_Sinc_DRLR, 1057.7, hit, 1, 2
1116, 8, T_Scon, T_Scon_DGRG, 517.1, hit, 2, 0
1117, 8, T_Sinc, T_Sinc_UGRG, 756.2, hit, 2, 0
1118, 8, T_Sinc, T_Sinc_UGRG, 519.7, hit, 2, 0
1119, 8, T_Scon, T_Scon_URLR, 531.0, hit, 1, 0
1120, 8, T_Scon, T_Scon_DGRG, 730.5, hit, 2, 0
1121, 8, T_Scon, T_Scon_URLR, 370.0, hit, 1, 0
1122, 8, T_Scon, T_Scon_DGRG, 749.4, hit, 2, 0
1123, 8, T_Scon, T_Scon_URLR, 400.8, hit, 1, 0
1124, 8, T_Sinc, T_Sinc_DRLR, 700.2, hit, 1, 0
1125, 8, T_Scon, T_Scon_DGRG, 499.7, hit, 2, 0
1126, 8, T_Sinc, T_Sinc_UGRG, 511.2, hit, 2, 0
1127, 8, T_Scon, T_Scon_DGRG, 574.6, hit, 2, 0
1128, 8, T_Sinc, T_Sinc_UGRG, 602.0, hit, 2, 0
1129, 8, T_Sinc, T_Sinc_DRLR, 493.5, hit, 1, 0
1130, 8, T_Sinc, T_Sinc_DRLR, 448.9, hit, 1, 0
1131, 8, T_Scon, T_Scon_URLR, 428.4, hit, 1, 0
1132, 8, T_Scon, T_Scon_DGRG, 539.8, hit, 2, 0
1133, 8, T_Scon, T_Scon_DGRG, 535.2, hit, 2, 0
1134, 8, T_Scon, T_Scon_DGRG, 794.7, hit, 2, 0
1135, 8, T_Scon, T_Scon_DGRG, 494.1, hit, 2, 0
1136, 8, T_Sinc, T_Sinc_DRLR, 353.5, hit, 1, 0
1137, 8, T_Sinc, T_Sinc_DRLR, 277.0, hit, 1, 0
1138, 8, T_Sinc, T_Sinc_UGRG, 428.4, hit, 2, 0
1139, 8, T_Sinc, T_Sinc_UGRG, 403.9, hit, 2, 0
1140, 8, T_Scon, T_Scon_URLR, 479.3, hit, 1, 0
1141, 8, T_Scon, T_Scon_URLR, 386.7, hit, 1, 0
1142, 8, T_Sinc, T_Sinc_DRLR, 334.2, hit, 1, 0
1143, 8, T_Scon, T_Scon_URLR, 349.5, hit, 1, 0
1144, 8, T_Scon, T_Scon_URLR, 281.1, hit, 1, 0
1145, 8, T_Sinc, T_Sinc_DRLR, 396.5, hit, 1, 0
1146, 8, T_Sinc, T_Sinc_UGRG, 599.9, hit, 2, 0
1147, 8, T_Scon, T_Scon_URLR, 403.4, hit, 1, 0
1148, 8, T_Scon, T_Scon_DGRG, 826.7, hit, 2, 0
1149, 8, T_Sinc, T_Sinc_DRLR, 510.2, hit, 1, 0
1150, 8, T_Scon, T_Scon_DGRG, 1021.7, hit, 2, 2
1151, 8, T_Sinc, T_Sinc_DRLR, 553.1, hit, 1, 0
1152, 8, T_Scon, T_Scon_DGRG, 732.5, hit, 2, 0
1153, 9, T_Sinc, T_Sinc_UGRG, 608.6, hit, 2, 0
1154, 9, T_Scon, T_Scon_URLR, 360.1, hit, 1, 0
1155, 9, T_Sinc, T_Sinc_DRLR, 467.5, hit, 1, 0
1156, 9, T_Scon, T_Scon_DGRG, 338.9, hit, 2, 0
1157, 9, T_Scon, T_Scon_URLR, 446.4, hit, 1, 0
1158, 9, T_Scon, T_Scon_URLR, 377.7, hit, 1, 0
1159, 9, T_Scon, T_Scon_URLR, 445.2, hit, 1, 0
1160, 9, T_Scon, T_Scon_URLR, 564.6, hit, 1, 0
1161, 9, T_Scon, T_Scon_URLR, 576.1, hit, 1, 0
1162, 9, T_Sinc, T_Sinc_UGRG, 499.6, hit, 2, 0
1163, 9, T_Sinc, T_Sinc_DRLR, 554.9, hit, 1, 0
1164, 9, T_Sinc, T_Sinc_DRLR, 446.4, hit, 1, 0
1165, 9, T_Sinc, T_Sinc_DRLR, 393.9, hit, 1, 0
1166, 9, T_Scon, T_Scon_URLR, 369.3, hit, 1, 0
1167, 9, T_Sinc, T_Sinc_DRLR, 360.7, hit, 1, 0
1168, 9, T_Sinc, T_Sinc_DRLR, 420.1, hit, 1, 0
1169, 9, T_Scon, T_Scon_URLR, 367.6, hit, 1, 0
1170, 9, T_Scon, T_Scon_DGRG, 659.0, hit, 2, 0
1171, 9, T_Sinc, T_Sinc_UGRG, 402.4, hit, 2, 0
1172, 9, T_Sinc, T_Sinc_UGRG, 525.9, hit, 2, 0
1173, 9, T_Scon, T_Scon_URLR, 545.4, hit, 1, 0
1174, 9, T_Scon, T_Scon_DGRG, 492.8, hit, 2, 0
1175, 9, T_Sinc, T_Sinc_UGRG, 568.2, hit, 2, 0
1176, 9, T_Sinc, T_Sinc_UGRG, 471.6, hit, 2, 0
1177, 9, T_Scon, T_Scon_URLR, 499.1, hit, 1, 0
1178, 9, T_Scon, T_Scon_URLR, 458.6, hit, 1, 0
1179, 9, T_Scon, T_Scon_URLR, 461.9, incorrect, 2, 1
1180, 9, T_Sinc, T_Sinc_DRLR, 657.4, hit, 1, 0
1181, 9, T_Scon, T_Scon_URLR, 424.9, hit, 1, 0
1182, 9, T_Scon, T_Scon_DGRG, 400.3, hit, 2, 0
1183, 9, T_Sinc, T_Sinc_UGRG, 579.7, hit, 2, 0
1184, 9, T_Sinc, T_Sinc_UGRG, 815.1, hit, 2, 0
1185, 9, T_Scon, T_Scon_DGRG, 574.6, hit, 2, 0
1186, 9, T_Scon, T_Scon_URLR, 542.1, hit, 1, 0
1187, 9, T_Sinc, T_Sinc_UGRG, 797.4, hit, 2, 0
1188, 9, T_Scon, T_Scon_DGRG, 512.9, hit, 2, 0
1189, 9, T_Scon, T_Scon_DGRG, 1168.1, hit, 2, 2
1190, 9, T_Sinc, T_Sinc_UGRG, 0.2, miss, 1027101, 1
1191, 9, T_Sinc, T_Sinc_UGRG, 950.9, hit, 2, 2
1192, 9, T_Scon, T_Scon_DGRG, 554.4, hit, 2, 0
1193, 9, T_Sinc, T_Sinc_DRLR, 841.7, hit, 1, 0
1194, 9, T_Sinc, T_Sinc_DRLR, 453.2, hit, 1, 0
1195, 9, T_Sinc, T_Sinc_DRLR, 896.7, hit, 1, 0
1196, 9, T_Scon, T_Scon_DGRG, 972.1, hit, 2, 2
1197, 9, T_Sinc, T_Sinc_UGRG, 587.6, hit, 2, 0
1198, 9, T_Scon, T_Scon_URLR, 739.1, hit, 1, 0
1199, 9, T_Sinc, T_Sinc_DRLR, 534.4, hit, 1, 0
1200, 9, T_Sinc, T_Sinc_DRLR, 369.9, hit, 1, 0
1201, 9, T_Scon, T_Scon_URLR, 333.3, hit, 1, 0
1202, 9, T_Scon, T_Scon_DGRG, 496.7, hit, 2, 0
1203, 9, T_Sinc, T_Sinc_DRLR, 368.1, hit, 1, 0
1204, 9, T_Scon, T_Scon_DGRG, 455.6, hit, 2, 0
1205, 9, T_Sinc, T_Sinc_UGRG, 551.1, hit, 2, 0
1206, 9, T_Sinc, T_Sinc_UGRG, 362.4, hit, 2, 0
1207, 9, T_Scon, T_Scon_DGRG, 697.9, hit, 2, 0
1208, 9, T_Scon, T_Scon_DGRG, 437.4, hit, 2, 0
1209, 9, T_Sinc, T_Sinc_DRLR, 504.8, hit, 1, 0
1210, 9, T_Sinc, T_Sinc_UGRG, 1172.2, hit, 2, 2
1211, 9, T_Scon, T_Scon_URLR, 523.6, hit, 1, 0
1212, 9, T_Scon, T_Scon_URLR, 591.1, hit, 1, 0
1213, 9, T_Scon, T_Scon_DGRG, 426.6, hit, 2, 0
1214, 9, T_Scon, T_Scon_DGRG, 549.9, hit, 2, 0
1215, 9, T_Sinc, T_Sinc_UGRG, 625.4, incorrect, 1, 1
1216, 9, T_Scon, T_Scon_DGRG, 420.9, hit, 2, 0
1217, 9, T_Sinc, T_Sinc_DRLR, 332.3, hit, 1, 0
1218, 9, T_Sinc, T_Sinc_DRLR, 927.7, hit, 1, 2
1219, 9, T_Scon, T_Scon_DGRG, 323.1, hit, 2, 0
1220, 9, T_Sinc, T_Sinc_DRLR, 342.6, hit, 1, 0
1221, 9, T_Scon, T_Scon_URLR, 438.1, hit, 1, 0
1222, 9, T_Sinc, T_Sinc_UGRG, 457.4, hit, 2, 0
1223, 9, T_Sinc, T_Sinc_DRLR, 532.9, hit, 1, 0
1224, 9, T_Scon, T_Scon_URLR, 432.3, hit, 1, 0
1225, 9, T_Scon, T_Scon_DGRG, 675.6, hit, 2, 0
1226, 9, T_Sinc, T_Sinc_UGRG, 790.9, hit, 2, 0
1227, 9, T_Sinc, T_Sinc_UGRG, 942.4, hit, 2, 2
1228, 9, T_Sinc, T_Sinc_UGRG, 1157.8, hit, 2, 2
1229, 9, T_Scon, T_Scon_DGRG, 481.2, hit, 2, 0
1230, 9, T_Sinc, T_Sinc_UGRG, 552.7, hit, 2, 0
1231, 9, T_Scon, T_Scon_DGRG, 396.1, hit, 2, 0
1232, 9, T_Sinc, T_Sinc_DRLR, 355.5, hit, 1, 0
1233, 9, T_Sinc, T_Sinc_UGRG, 359.0, hit, 2, 0
1234, 9, T_Sinc, T_Sinc_UGRG, 362.4, hit, 2, 0
1235, 9, T_Scon, T_Scon_DGRG, 421.9, hit, 2, 0
1236, 9, T_Scon, T_Scon_URLR, 393.3, hit, 1, 0
1237, 9, T_Sinc, T_Sinc_DRLR, 596.7, hit, 1, 0
1238, 9, T_Scon, T_Scon_DGRG, 416.2, hit, 2, 0
1239, 9, T_Scon, T_Scon_DGRG, 423.6, hit, 2, 0
1240, 9, T_Scon, T_Scon_URLR, 455.1, hit, 1, 0
1241, 9, T_Sinc, T_Sinc_UGRG, 714.4, hit, 2, 0
1242, 9, T_Scon, T_Scon_DGRG, 493.9, hit, 2, 0
1243, 9, T_Scon, T_Scon_DGRG, 437.3, hit, 2, 0
1244, 9, T_Scon, T_Scon_DGRG, 388.8, hit, 2, 0
1245, 9, T_Sinc, T_Sinc_UGRG, 412.2, hit, 2, 0
1246, 9, T_Sinc, T_Sinc_UGRG, 347.6, hit, 2, 0
1247, 9, T_Sinc, T_Sinc_DRLR, 455.1, hit, 1, 0
1248, 9, T_Sinc, T_Sinc_DRLR, 334.6, hit, 1, 0
1249, 9, T_Scon, T_Scon_DGRG, 369.9, incorrect, 1, 1
1250, 9, T_Sinc, T_Sinc_UGRG, 561.4, hit, 2, 0
1251, 9, T_Scon, T_Scon_URLR, 548.8, hit, 1, 0
1252, 9, T_Scon, T_Scon_DGRG, 524.3, hit, 2, 0
1253, 9, T_Scon, T_Scon_URLR, 543.8, incorrect, 2, 1
1254, 9, T_Scon, T_Scon_DGRG, 447.1, hit, 2, 0
1255, 9, T_Scon, T_Scon_URLR, 434.6, hit, 1, 0
1256, 9, T_Scon, T_Scon_URLR, 370.0, hit, 1, 0
1257, 9, T_Sinc, T_Sinc_UGRG, 557.5, hit, 2, 0
1258, 9, T_Scon, T_Scon_URLR, 384.9, hit, 1, 0
1259, 9, T_Sinc, T_Sinc_UGRG, 484.3, hit, 2, 0
1260, 9, T_Sinc, T_Sinc_DRLR, 679.8, hit, 1, 0
1261, 9, T_Sinc, T_Sinc_DRLR, 582.9, hit, 1, 0
1262, 9, T_Scon, T_Scon_DGRG, 530.4, hit, 2, 0
1263, 9, T_Sinc, T_Sinc_DRLR, 405.9, hit, 1, 0
1264, 9, T_Scon, T_Scon_URLR, 505.2, hit, 1, 0
1265, 9, T_Sinc, T_Sinc_DRLR, 372.7, hit, 1, 0
1266, 9, T_Sinc, T_Sinc_DRLR, 400.1, hit, 1, 0
1267, 9, T_Scon, T_Scon_DGRG, 447.6, hit, 2, 0
1268, 9, T_Scon, T_Scon_URLR, 427.0, hit, 1, 0
1269, 9, T_Sinc, T_Sinc_DRLR, 466.4, hit, 1, 0
1270, 9, T_Scon, T_Scon_DGRG, 581.9, hit, 2, 0
1271, 9, T_Sinc, T_Sinc_DRLR, 657.3, hit, 1, 0
1272, 9, T_Sinc, T_Sinc_DRLR, 460.7, hit, 1, 0
1273, 9, T_Scon, T_Scon_URLR, 448.2, hit, 1, 0
1274, 9, T_Sinc, T_Sinc_DRLR, 395.6, hit, 1, 0
1275, 9, T_Sinc, T_Sinc_DRLR, 315.1, hit, 1, 0
1276, 9, T_Scon, T_Scon_URLR, 358.5, hit, 1, 0
1277, 9, T_Sinc, T_Sinc_DRLR, 409.9, hit, 1, 0
1278, 9, T_Scon, T_Scon_DGRG, 433.4, hit, 2, 0
1279, 9, T_Scon, T_Scon_DGRG, 420.8, hit, 2, 0
1280, 9, T_Scon, T_Scon_URLR, 704.3, hit, 1, 0
1281, 9, T_Sinc, T_Sinc_UGRG, 491.6, hit, 2, 0
1282, 9, T_Scon, T_Scon_DGRG, 439.1, hit, 2, 0
1283, 9, T_Sinc, T_Sinc_DRLR, 594.6, hit, 1, 0
1284, 9, T_Sinc, T_Sinc_UGRG, 486.0, hit, 2, 0
1285, 9, T_Scon, T_Scon_URLR, 661.4, hit, 1, 0
1286, 9, T_Sinc, T_Sinc_UGRG, 728.8, hit, 2, 0
1287, 9, T_Sinc, T_Sinc_DRLR, 860.3, hit, 1, 0
1288, 9, T_Sinc, T_Sinc_UGRG, 655.8, hit, 2, 0
1289, 9, T_Scon, T_Scon_URLR, 619.1, hit, 1, 0
1290, 9, T_Sinc, T_Sinc_UGRG, 590.6, hit, 2, 0
1291, 9, T_Scon, T_Scon_DGRG, 1042.0, hit, 2, 2
1292, 9, T_Sinc, T_Sinc_DRLR, 389.5, hit, 1, 0
1293, 9, T_Sinc, T_Sinc_UGRG, 752.9, hit, 2, 0
1294, 9, T_Scon, T_Scon_URLR, 552.3, hit, 1, 0
1295, 9, T_Scon, T_Scon_URLR, 491.8, hit, 1, 0
1296, 9, T_Sinc, T_Sinc_UGRG, 343.3, hit, 2, 0
