"","stim_color","stim_loc","Type","Response","RT","Subject","Trial","logfile_name","prop","condition","block","time_stamp","onset","factors","Subject_num","rule","congruency","correct_action","run","p_value"
"1","red","right","hit",0,939.5,"sub01_Yangmiao",1,"v_80",80,"v",1,1553158380,0.21405,"sub01_Yangmiao-v_80",1,"redleft-greenright","inc",0,1,0.5
"2","red","left","hit",0,682.6,"sub01_Yangmiao",2,"v_80",80,"v",1,1553158380,2.6305,"sub01_Yangmiao-v_80",1,"redleft-greenright","con",0,1,0.5
"3","red","left","hit",0,391.8,"sub01_Yangmiao",3,"v_80",80,"v",1,1553158380,5.1719,"sub01_Yangmiao-v_80",1,"redleft-greenright","con",0,1,0.783478426898564
"4","red","left","hit",0,404.8,"sub01_Yangmiao",4,"v_80",80,"v",1,1553158380,7.7133,"sub01_Yangmiao-v_80",1,"redleft-greenright","con",0,1,0.906236816763359
"5","green","right","hit",1,369.6,"sub01_Yangmiao",5,"v_80",80,"v",1,1553158380,10.2547,"sub01_Yangmiao-v_80",1,"redleft-greenright","con",1,1,0.391875736478019
"6","green","right","hit",1,392.5,"sub01_Yangmiao",6,"v_80",80,"v",1,1553158380,12.67115,"sub01_Yangmiao-v_80",1,"redleft-greenright","con",1,1,0.736655955642136
"7","green","right","hit",1,325.8,"sub01_Yangmiao",7,"v_80",80,"v",1,1553158380,15.21255,"sub01_Yangmiao-v_80",1,"redleft-greenright","con",1,1,0.885960666497482
"8","red","left","hit",0,491,"sub01_Yangmiao",8,"v_80",80,"v",1,1553158380,17.75395,"sub01_Yangmiao-v_80",1,"redleft-greenright","con",0,1,0.675222885044286
"9","red","left","hit",0,391.6,"sub01_Yangmiao",9,"v_80",80,"v",1,1553158380,20.2954,"sub01_Yangmiao-v_80",1,"redleft-greenright","con",0,1,0.859357496324885
"10","green","left","hit",1,476.4,"sub01_Yangmiao",10,"v_80",80,"v",1,1553158380,22.33685,"sub01_Yangmiao-v_80",1,"redleft-greenright","inc",1,1,0.0609042722813208
"11","green","right","hit",1,377.6,"sub01_Yangmiao",11,"v_80",80,"v",1,1553158380,24.87825,"sub01_Yangmiao-v_80",1,"redleft-greenright","con",1,1,0.671873849022738
"12","green","left","hit",1,384.7,"sub01_Yangmiao",12,"v_80",80,"v",1,1553158380,27.2947,"sub01_Yangmiao-v_80",1,"redleft-greenright","inc",1,1,0.53019439774355
"13","red","right","hit",0,429.7,"sub01_Yangmiao",13,"v_80",80,"v",1,1553158380,29.8361,"sub01_Yangmiao-v_80",1,"redleft-greenright","inc",0,1,0.24043975550472
"14","green","right","hit",1,332.6,"sub01_Yangmiao",14,"v_80",80,"v",1,1553158380,32.2525,"sub01_Yangmiao-v_80",1,"redleft-greenright","con",1,1,0.370735181612464
"15","green","left","hit",1,475.6,"sub01_Yangmiao",15,"v_80",80,"v",1,1553158380,34.66895,"sub01_Yangmiao-v_80",1,"redleft-greenright","inc",1,1,0.655969283731005
"16","green","left","hit",1,426.4,"sub01_Yangmiao",16,"v_80",80,"v",1,1553158380,37.08535,"sub01_Yangmiao-v_80",1,"redleft-greenright","inc",1,1,0.851019856236447
"17","red","right","hit",0,553.5,"sub01_Yangmiao",17,"v_80",80,"v",1,1553158380,39.00185,"sub01_Yangmiao-v_80",1,"redleft-greenright","inc",0,1,0.380348239785396
"18","red","right","hit",0,456.5,"sub01_Yangmiao",18,"v_80",80,"v",1,1553158380,41.41825,"sub01_Yangmiao-v_80",1,"redleft-greenright","inc",0,1,0.73166405220652
"19","green","right","hit",1,427.2,"sub01_Yangmiao",19,"v_80",80,"v",1,1553158380,43.5847,"sub01_Yangmiao-v_80",1,"redleft-greenright","con",1,1,0.116201043071819
"20","red","left","hit",0,484.4,"sub01_Yangmiao",20,"v_80",80,"v",1,1553158380,45.87615,"sub01_Yangmiao-v_80",1,"redleft-greenright","con",0,1,0.333897366452185
"21","red","left","hit",0,401.4,"sub01_Yangmiao",21,"v_80",80,"v",1,1553158380,48.41755,"sub01_Yangmiao-v_80",1,"redleft-greenright","con",0,1,0.711548819874435
"22","red","left","hit",0,510.4,"sub01_Yangmiao",22,"v_80",80,"v",1,1553158380,50.95895,"sub01_Yangmiao-v_80",1,"redleft-greenright","con",0,1,0.875088193432494
"23","green","right","hit",1,365.4,"sub01_Yangmiao",23,"v_80",80,"v",1,1553158380,53.3754,"sub01_Yangmiao-v_80",1,"redleft-greenright","con",1,1,0.526174895290256
"24","red","left","hit",0,378.4,"sub01_Yangmiao",24,"v_80",80,"v",1,1553158380,55.9168,"sub01_Yangmiao-v_80",1,"redleft-greenright","con",0,1,0.823379722249539
"25","green","right","hit",1,359.3,"sub01_Yangmiao",25,"v_80",80,"v",1,1553158380,57.95825,"sub01_Yangmiao-v_80",1,"redleft-greenright","con",1,1,0.713803478832124
"26","green","right","hit",1,508.3,"sub01_Yangmiao",26,"v_80",80,"v",1,1553158380,60.4997,"sub01_Yangmiao-v_80",1,"redleft-greenright","con",1,1,0.876064558041146
"27","green","right","hit",1,449.3,"sub01_Yangmiao",27,"v_80",80,"v",1,1553158380,63.0411,"sub01_Yangmiao-v_80",1,"redleft-greenright","con",1,1,0.946330606288094
"28","red","left","hit",0,518.1,"sub01_Yangmiao",28,"v_80",80,"v",1,1553158380,65.5825,"sub01_Yangmiao-v_80",1,"redleft-greenright","con",0,1,0.66153727951617
"29","red","left","hit",0,395.3,"sub01_Yangmiao",29,"v_80",80,"v",1,1553158380,68.1239,"sub01_Yangmiao-v_80",1,"redleft-greenright","con",0,1,0.853431038649299
"30","green","right","hit",1,338.3,"sub01_Yangmiao",30,"v_80",80,"v",1,1553158380,70.54035,"sub01_Yangmiao-v_80",1,"redleft-greenright","con",1,1,0.750746098182536
"31","green","right","hit",1,369,"sub01_Yangmiao",31,"v_80",80,"v",1,1553158380,72.95675,"sub01_Yangmiao-v_80",1,"redleft-greenright","con",1,1,0.892062306153623
"32","red","left","hit",0,454,"sub01_Yangmiao",32,"v_80",80,"v",1,1553158380,75.4982,"sub01_Yangmiao-v_80",1,"redleft-greenright","con",0,1,0.729587821387722
"33","green","right","hit",1,403.3,"sub01_Yangmiao",33,"v_80",80,"v",1,1553158380,78.0396,"sub01_Yangmiao-v_80",1,"redleft-greenright","con",1,1,0.828710443426486
"34","green","right","hit",1,376.1,"sub01_Yangmiao",34,"v_80",80,"v",1,1553158380,80.581,"sub01_Yangmiao-v_80",1,"redleft-greenright","con",1,1,0.92582423150971
"35","green","right","hit",1,333.2,"sub01_Yangmiao",35,"v_80",80,"v",1,1553158380,83.1224,"sub01_Yangmiao-v_80",1,"redleft-greenright","con",1,1,0.967878691840949
"36","red","left","hit",0,356.3,"sub01_Yangmiao",36,"v_80",80,"v",1,1553158380,85.53885,"sub01_Yangmiao-v_80",1,"redleft-greenright","con",0,1,0.646045558928348
"37","red","left","hit",0,405.1,"sub01_Yangmiao",37,"v_80",80,"v",1,1553158380,87.8303,"sub01_Yangmiao-v_80",1,"redleft-greenright","con",0,1,0.846722455225852
"38","red","left","hit",0,304.1,"sub01_Yangmiao",38,"v_80",80,"v",1,1553158380,89.99675,"sub01_Yangmiao-v_80",1,"redleft-greenright","con",0,1,0.933624209768751
"39","green","right","hit",1,301.2,"sub01_Yangmiao",39,"v_80",80,"v",1,1553158380,92.53815,"sub01_Yangmiao-v_80",1,"redleft-greenright","con",1,1,0.685404347371384
"40","red","left","hit",0,356.1,"sub01_Yangmiao",40,"v_80",80,"v",1,1553158380,94.95455,"sub01_Yangmiao-v_80",1,"redleft-greenright","con",0,1,0.841762961893598
"41","red","left","hit",0,337.2,"sub01_Yangmiao",41,"v_80",20,"v",2,1553158380,97.496,"sub01_Yangmiao-v_80",1,"redleft-greenright","con",0,1,0.93147653517258
"42","green","left","incorrect",0,352.1,"sub01_Yangmiao",42,"v_80",20,"v",2,1553158380,99.9124,"sub01_Yangmiao-v_80",1,"redleft-greenright","inc",1,1,0.970326383202412
"43","green","right","hit",1,429.1,"sub01_Yangmiao",43,"v_80",20,"v",2,1553158380,102.4538,"sub01_Yangmiao-v_80",1,"redleft-greenright","con",1,1,0.638747721612214
"44","red","right","hit",0,628,"sub01_Yangmiao",44,"v_80",20,"v",2,1553158380,104.87025,"sub01_Yangmiao-v_80",1,"redleft-greenright","inc",0,1,0.156437823206003
"45","red","left","hit",0,673.1,"sub01_Yangmiao",45,"v_80",20,"v",2,1553158380,107.41165,"sub01_Yangmiao-v_80",1,"redleft-greenright","con",0,1,0.486119637442403
"46","red","right","hit",0,509.8,"sub01_Yangmiao",46,"v_80",20,"v",2,1553158380,109.95305,"sub01_Yangmiao-v_80",1,"redleft-greenright","inc",0,1,0.564010629572141
"47","green","left","hit",1,501,"sub01_Yangmiao",47,"v_80",20,"v",2,1553158380,111.86955,"sub01_Yangmiao-v_80",1,"redleft-greenright","inc",1,1,0.29877587743619
"48","red","right","hit",0,482,"sub01_Yangmiao",48,"v_80",20,"v",2,1553158380,114.41095,"sub01_Yangmiao-v_80",1,"redleft-greenright","inc",0,1,0.725685793583734
"49","red","right","hit",0,481,"sub01_Yangmiao",49,"v_80",20,"v",2,1553158380,116.82735,"sub01_Yangmiao-v_80",1,"redleft-greenright","inc",0,1,0.881210113005356
"50","red","right","hit",0,501.8,"sub01_Yangmiao",50,"v_80",20,"v",2,1553158380,119.3688,"sub01_Yangmiao-v_80",1,"redleft-greenright","inc",0,1,0.948558853598756
"51","green","right","hit",1,603,"sub01_Yangmiao",51,"v_80",20,"v",2,1553158380,121.9102,"sub01_Yangmiao-v_80",1,"redleft-greenright","con",1,1,0.0222762358818775
"52","green","left","hit",1,751.7,"sub01_Yangmiao",52,"v_80",20,"v",2,1553158380,124.4516,"sub01_Yangmiao-v_80",1,"redleft-greenright","inc",1,1,0.543632265142092
"53","red","right","hit",0,556.7,"sub01_Yangmiao",53,"v_80",20,"v",2,1553158380,126.49305,"sub01_Yangmiao-v_80",1,"redleft-greenright","inc",0,1,0.48347885758218
"54","red","right","hit",0,407.7,"sub01_Yangmiao",54,"v_80",20,"v",2,1553158380,128.6595,"sub01_Yangmiao-v_80",1,"redleft-greenright","inc",0,1,0.776324059407085
"55","green","left","hit",1,444.9,"sub01_Yangmiao",55,"v_80",20,"v",2,1553158380,131.20095,"sub01_Yangmiao-v_80",1,"redleft-greenright","inc",1,1,0.659029815929129
"56","green","left","hit",1,501.9,"sub01_Yangmiao",56,"v_80",20,"v",2,1553158380,133.49235,"sub01_Yangmiao-v_80",1,"redleft-greenright","inc",1,1,0.852345198728578
"57","green","right","hit",1,564.6,"sub01_Yangmiao",57,"v_80",20,"v",2,1553158380,135.9088,"sub01_Yangmiao-v_80",1,"redleft-greenright","con",1,1,0.287973625356163
"58","green","left","hit",1,417.8,"sub01_Yangmiao",58,"v_80",20,"v",2,1553158380,138.4502,"sub01_Yangmiao-v_80",1,"redleft-greenright","inc",1,1,0.816237283319908
"59","red","right","hit",0,416.7,"sub01_Yangmiao",59,"v_80",20,"v",2,1553158380,140.86665,"sub01_Yangmiao-v_80",1,"redleft-greenright","inc",0,1,0.389429338520574
"60","red","left","hit",0,605.6,"sub01_Yangmiao",60,"v_80",20,"v",2,1553158380,143.40805,"sub01_Yangmiao-v_80",1,"redleft-greenright","con",0,1,0.195102409804953
"61","red","right","hit",0,484.5,"sub01_Yangmiao",61,"v_80",20,"v",2,1553158380,145.82445,"sub01_Yangmiao-v_80",1,"redleft-greenright","inc",0,1,0.670858528053159
"62","green","left","hit",1,467.8,"sub01_Yangmiao",62,"v_80",20,"v",2,1553158380,148.2409,"sub01_Yangmiao-v_80",1,"redleft-greenright","inc",1,1,0.422303177343531
"63","red","right","hit",0,504.7,"sub01_Yangmiao",63,"v_80",20,"v",2,1553158380,150.7823,"sub01_Yangmiao-v_80",1,"redleft-greenright","inc",0,1,0.759241382880369
"64","red","left","hit",0,539.7,"sub01_Yangmiao",64,"v_80",20,"v",2,1553158380,152.94875,"sub01_Yangmiao-v_80",1,"redleft-greenright","con",0,1,0.318817440778901
"65","green","left","hit",1,440.7,"sub01_Yangmiao",65,"v_80",20,"v",2,1553158380,155.49015,"sub01_Yangmiao-v_80",1,"redleft-greenright","inc",1,1,0.332479670486028
"66","red","right","hit",0,429.7,"sub01_Yangmiao",66,"v_80",20,"v",2,1553158380,158.03155,"sub01_Yangmiao-v_80",1,"redleft-greenright","inc",0,1,0.708135721462826
"67","green","left","hit",1,402.5,"sub01_Yangmiao",67,"v_80",20,"v",2,1553158380,160.573,"sub01_Yangmiao-v_80",1,"redleft-greenright","inc",1,1,0.652973481193895
"68","green","left","hit",1,423.7,"sub01_Yangmiao",68,"v_80",20,"v",2,1553158380,163.1144,"sub01_Yangmiao-v_80",1,"redleft-greenright","inc",1,1,0.849722544480374
"69","green","left","hit",1,452.5,"sub01_Yangmiao",69,"v_80",20,"v",2,1553158380,165.6558,"sub01_Yangmiao-v_80",1,"redleft-greenright","inc",1,1,0.934923377858419
"70","red","right","hit",0,553.7,"sub01_Yangmiao",70,"v_80",20,"v",2,1553158380,168.1972,"sub01_Yangmiao-v_80",1,"redleft-greenright","inc",0,1,0.642502289893336
"71","green","left","hit",1,430.7,"sub01_Yangmiao",71,"v_80",20,"v",2,1553158380,170.73865,"sub01_Yangmiao-v_80",1,"redleft-greenright","inc",1,1,0.84217096571458
"72","green","right","hit",1,413.7,"sub01_Yangmiao",72,"v_80",20,"v",2,1553158380,173.15505,"sub01_Yangmiao-v_80",1,"redleft-greenright","con",1,1,0.249663895512707
"73","red","right","hit",0,468.7,"sub01_Yangmiao",73,"v_80",20,"v",2,1553158380,175.5715,"sub01_Yangmiao-v_80",1,"redleft-greenright","inc",0,1,0.366232953848619
"74","green","left","hit",1,497.6,"sub01_Yangmiao",74,"v_80",20,"v",2,1553158380,178.1129,"sub01_Yangmiao-v_80",1,"redleft-greenright","inc",1,1,0.727023291261932
"75","red","right","hit",0,630.7,"sub01_Yangmiao",75,"v_80",20,"v",2,1553158380,180.6543,"sub01_Yangmiao-v_80",1,"redleft-greenright","inc",0,1,0.663573701975301
"76","red","right","hit",0,467.6,"sub01_Yangmiao",76,"v_80",20,"v",2,1553158380,183.1957,"sub01_Yangmiao-v_80",1,"redleft-greenright","inc",0,1,0.854312897437999
"77","red","right","hit",0,490.7,"sub01_Yangmiao",77,"v_80",20,"v",2,1553158380,185.61215,"sub01_Yangmiao-v_80",1,"redleft-greenright","inc",0,1,0.93691119874537
"78","green","left","hit",1,537.3,"sub01_Yangmiao",78,"v_80",20,"v",2,1553158380,188.02855,"sub01_Yangmiao-v_80",1,"redleft-greenright","inc",1,1,0.645621972416264
"79","green","left","hit",1,424.3,"sub01_Yangmiao",79,"v_80",20,"v",2,1553158380,190.445,"sub01_Yangmiao-v_80",1,"redleft-greenright","inc",1,1,0.84653902398997
"80","green","left","hit",1,477.5,"sub01_Yangmiao",80,"v_80",20,"v",2,1553158380,192.48645,"sub01_Yangmiao-v_80",1,"redleft-greenright","inc",1,1,0.933544776129253
"81","green","right","hit",1,606.4,"sub01_Yangmiao",81,"v_80",80,"v",3,1553158380,194.7779,"sub01_Yangmiao-v_80",1,"redleft-greenright","con",1,1,0.31971059054899
"82","green","left","hit",1,453.2,"sub01_Yangmiao",82,"v_80",80,"v",3,1553158380,197.1943,"sub01_Yangmiao-v_80",1,"redleft-greenright","inc",1,1,0.841738015754074
"83","green","right","hit",1,388.4,"sub01_Yangmiao",83,"v_80",80,"v",3,1553158380,199.61075,"sub01_Yangmiao-v_80",1,"redleft-greenright","con",1,1,0.62180466840274
"84","red","left","hit",0,449.5,"sub01_Yangmiao",84,"v_80",80,"v",3,1553158380,202.15215,"sub01_Yangmiao-v_80",1,"redleft-greenright","con",0,1,0.187093903166179
"85","red","left","hit",0,542.5,"sub01_Yangmiao",85,"v_80",80,"v",3,1553158380,204.69355,"sub01_Yangmiao-v_80",1,"redleft-greenright","con",0,1,0.603227141457587
"86","red","left","hit",0,507.7,"sub01_Yangmiao",86,"v_80",80,"v",3,1553158380,206.735,"sub01_Yangmiao-v_80",1,"redleft-greenright","con",0,1,0.828180233008886
"87","red","left","hit",0,360.4,"sub01_Yangmiao",87,"v_80",80,"v",3,1553158380,209.27645,"sub01_Yangmiao-v_80",1,"redleft-greenright","con",0,1,0.925594627522323
"88","green","right","hit",1,445,"sub01_Yangmiao",88,"v_80",80,"v",3,1553158380,211.81785,"sub01_Yangmiao-v_80",1,"redleft-greenright","con",1,1,0.593003865747883
"89","green","right","hit",1,346.4,"sub01_Yangmiao",89,"v_80",80,"v",3,1553158380,214.35925,"sub01_Yangmiao-v_80",1,"redleft-greenright","con",1,1,0.823753113531057
"90","green","left","hit",1,577.2,"sub01_Yangmiao",90,"v_80",80,"v",3,1553158380,216.7757,"sub01_Yangmiao-v_80",1,"redleft-greenright","inc",1,1,0.25397661032396
"91","red","left","hit",0,622.1,"sub01_Yangmiao",91,"v_80",80,"v",3,1553158380,219.3171,"sub01_Yangmiao-v_80",1,"redleft-greenright","con",0,1,0.364127952803106
"92","green","right","hit",1,535.3,"sub01_Yangmiao",92,"v_80",80,"v",3,1553158380,221.60855,"sub01_Yangmiao-v_80",1,"redleft-greenright","con",1,1,0.722828546072374
"93","green","right","hit",1,436.3,"sub01_Yangmiao",93,"v_80",80,"v",3,1553158380,224.14995,"sub01_Yangmiao-v_80",1,"redleft-greenright","con",1,1,0.879972801553556
"94","red","left","hit",0,545.3,"sub01_Yangmiao",94,"v_80",80,"v",3,1553158380,226.69135,"sub01_Yangmiao-v_80",1,"redleft-greenright","con",0,1,0.618146935385509
"95","green","right","hit",1,408.3,"sub01_Yangmiao",95,"v_80",80,"v",3,1553158380,229.1078,"sub01_Yangmiao-v_80",1,"redleft-greenright","con",1,1,0.824913733739849
"96","red","left","hit",0,359.3,"sub01_Yangmiao",96,"v_80",80,"v",3,1553158380,231.5242,"sub01_Yangmiao-v_80",1,"redleft-greenright","con",0,1,0.742687303858952
"97","green","right","hit",1,420.2,"sub01_Yangmiao",97,"v_80",80,"v",3,1553158380,234.0656,"sub01_Yangmiao-v_80",1,"redleft-greenright","con",1,1,0.807622429999884
"98","red","left","hit",0,471.1,"sub01_Yangmiao",98,"v_80",80,"v",3,1553158380,236.23205,"sub01_Yangmiao-v_80",1,"redleft-greenright","con",0,1,0.781799214479158
"99","red","left","hit",0,346.2,"sub01_Yangmiao",99,"v_80",80,"v",3,1553158380,238.3985,"sub01_Yangmiao-v_80",1,"redleft-greenright","con",0,1,0.905509645334116
"100","green","right","hit",1,415.2,"sub01_Yangmiao",100,"v_80",80,"v",3,1553158380,240.93995,"sub01_Yangmiao-v_80",1,"redleft-greenright","con",1,1,0.719154713397833
"101","red","left","hit",0,366.1,"sub01_Yangmiao",101,"v_80",80,"v",3,1553158380,243.35635,"sub01_Yangmiao-v_80",1,"redleft-greenright","con",0,1,0.832933581149249
"102","red","left","hit",0,387.2,"sub01_Yangmiao",102,"v_80",80,"v",3,1553158380,245.89775,"sub01_Yangmiao-v_80",1,"redleft-greenright","con",0,1,0.927653032356024
"103","red","right","hit",0,656.2,"sub01_Yangmiao",103,"v_80",80,"v",3,1553158380,248.4392,"sub01_Yangmiao-v_80",1,"redleft-greenright","inc",0,1,0.300994190228383
"104","red","left","hit",0,463.1,"sub01_Yangmiao",104,"v_80",80,"v",3,1553158380,250.8556,"sub01_Yangmiao-v_80",1,"redleft-greenright","con",0,1,0.839887713248306
"105","red","left","hit",0,374.2,"sub01_Yangmiao",105,"v_80",80,"v",3,1553158380,253.272,"sub01_Yangmiao-v_80",1,"redleft-greenright","con",0,1,0.93066447159931
"106","green","right","hit",1,475.1,"sub01_Yangmiao",106,"v_80",80,"v",3,1553158380,255.81345,"sub01_Yangmiao-v_80",1,"redleft-greenright","con",1,1,0.416469859844392
"107","green","left","hit",1,551.8,"sub01_Yangmiao",107,"v_80",80,"v",3,1553158380,258.35485,"sub01_Yangmiao-v_80",1,"redleft-greenright","inc",1,1,0.159166544066288
"108","green","right","hit",1,366.9,"sub01_Yangmiao",108,"v_80",80,"v",3,1553158380,260.77125,"sub01_Yangmiao-v_80",1,"redleft-greenright","con",1,1,0.679350605490416
"109","green","right","hit",1,355.9,"sub01_Yangmiao",109,"v_80",80,"v",3,1553158380,263.3127,"sub01_Yangmiao-v_80",1,"redleft-greenright","con",1,1,0.861144977373524
"110","red","left","hit",0,643.1,"sub01_Yangmiao",110,"v_80",80,"v",3,1553158380,265.7291,"sub01_Yangmiao-v_80",1,"redleft-greenright","con",0,1,0.452877950419798
"111","green","right","hit",1,492,"sub01_Yangmiao",111,"v_80",80,"v",3,1553158380,268.02055,"sub01_Yangmiao-v_80",1,"redleft-greenright","con",1,1,0.819000854361631
"112","red","left","hit",0,440.8,"sub01_Yangmiao",112,"v_80",80,"v",3,1553158380,270.56195,"sub01_Yangmiao-v_80",1,"redleft-greenright","con",0,1,0.690784568645433
"113","green","right","hit",1,462,"sub01_Yangmiao",113,"v_80",80,"v",3,1553158380,273.10335,"sub01_Yangmiao-v_80",1,"redleft-greenright","con",1,1,0.805765489856028
"114","green","right","hit",1,451.1,"sub01_Yangmiao",114,"v_80",80,"v",3,1553158380,275.6448,"sub01_Yangmiao-v_80",1,"redleft-greenright","con",1,1,0.91588807662608
"115","green","left","hit",1,655.9,"sub01_Yangmiao",115,"v_80",80,"v",3,1553158380,277.68625,"sub01_Yangmiao-v_80",1,"redleft-greenright","inc",1,1,0.307455612930737
"116","red","right","hit",0,559,"sub01_Yangmiao",116,"v_80",80,"v",3,1553158380,280.10265,"sub01_Yangmiao-v_80",1,"redleft-greenright","inc",0,1,0.163807071845078
"117","red","left","hit",0,693.9,"sub01_Yangmiao",117,"v_80",80,"v",3,1553158380,282.01915,"sub01_Yangmiao-v_80",1,"redleft-greenright","con",0,1,0.382533254349862
"118","green","right","hit",1,730.6,"sub01_Yangmiao",118,"v_80",80,"v",3,1553158380,284.56055,"sub01_Yangmiao-v_80",1,"redleft-greenright","con",1,1,0.433380860454457
"119","red","right","hit",0,535.8,"sub01_Yangmiao",119,"v_80",80,"v",3,1553158380,287.10195,"sub01_Yangmiao-v_80",1,"redleft-greenright","inc",0,1,0.245370534887566
"120","red","right","hit",0,470.6,"sub01_Yangmiao",120,"v_80",80,"v",3,1553158380,289.5184,"sub01_Yangmiao-v_80",1,"redleft-greenright","inc",0,1,0.631671491726798
"121","red","left","hit",0,435.9,"sub01_Yangmiao",121,"v_80",20,"v",4,1553158380,292.0598,"sub01_Yangmiao-v_80",1,"redleft-greenright","con",0,1,0.58872214046816
"122","green","left","hit",1,576.9,"sub01_Yangmiao",122,"v_80",20,"v",4,1553158380,294.6012,"sub01_Yangmiao-v_80",1,"redleft-greenright","inc",1,1,0.178101058255251
"123","green","left","hit",1,565.9,"sub01_Yangmiao",123,"v_80",20,"v",4,1553158380,297.1426,"sub01_Yangmiao-v_80",1,"redleft-greenright","inc",1,1,0.598837806950644
"124","green","left","hit",1,516.8,"sub01_Yangmiao",124,"v_80",20,"v",4,1553158380,299.0591,"sub01_Yangmiao-v_80",1,"redleft-greenright","inc",1,1,0.826279461784262
"125","green","left","hit",1,417.8,"sub01_Yangmiao",125,"v_80",20,"v",4,1553158380,301.6005,"sub01_Yangmiao-v_80",1,"redleft-greenright","inc",1,1,0.924771511571001
"126","red","right","hit",0,616.6,"sub01_Yangmiao",126,"v_80",20,"v",4,1553158380,304.01695,"sub01_Yangmiao-v_80",1,"redleft-greenright","inc",0,1,0.568305074948031
"127","red","right","hit",0,455.8,"sub01_Yangmiao",127,"v_80",20,"v",4,1553158380,306.43335,"sub01_Yangmiao-v_80",1,"redleft-greenright","inc",0,1,0.813057471455682
"128","green","right","hit",1,460.4,"sub01_Yangmiao",128,"v_80",20,"v",4,1553158380,308.4748,"sub01_Yangmiao-v_80",1,"redleft-greenright","con",1,1,0.0809541807199519
"129","red","right","hit",0,483.6,"sub01_Yangmiao",129,"v_80",20,"v",4,1553158380,310.89125,"sub01_Yangmiao-v_80",1,"redleft-greenright","inc",0,1,0.448578794361956
"130","green","left","hit",1,488.4,"sub01_Yangmiao",130,"v_80",20,"v",4,1553158380,313.43265,"sub01_Yangmiao-v_80",1,"redleft-greenright","inc",1,1,0.629294715340676
"131","green","left","hit",1,461.6,"sub01_Yangmiao",131,"v_80",20,"v",4,1553158380,315.97405,"sub01_Yangmiao-v_80",1,"redleft-greenright","inc",1,1,0.839468617217095
"132","red","right","hit",0,564.6,"sub01_Yangmiao",132,"v_80",20,"v",4,1553158380,318.3905,"sub01_Yangmiao-v_80",1,"redleft-greenright","inc",0,1,0.637380978413615
"133","red","right","hit",0,449.3,"sub01_Yangmiao",133,"v_80",20,"v",4,1553158380,320.9319,"sub01_Yangmiao-v_80",1,"redleft-greenright","inc",0,1,0.842970318019224
"134","green","left","hit",1,390.5,"sub01_Yangmiao",134,"v_80",20,"v",4,1553158380,323.4733,"sub01_Yangmiao-v_80",1,"redleft-greenright","inc",1,1,0.72640781974835
"135","green","left","hit",1,435.6,"sub01_Yangmiao",135,"v_80",20,"v",4,1553158380,326.01475,"sub01_Yangmiao-v_80",1,"redleft-greenright","inc",1,1,0.881522781487322
"136","red","right","hit",0,400.4,"sub01_Yangmiao",136,"v_80",20,"v",4,1553158380,328.55615,"sub01_Yangmiao-v_80",1,"redleft-greenright","inc",0,1,0.727205347193387
"137","green","left","hit",1,413.6,"sub01_Yangmiao",137,"v_80",20,"v",4,1553158380,331.09755,"sub01_Yangmiao-v_80",1,"redleft-greenright","inc",1,1,0.825400505036383
"138","green","left","hit",1,410.4,"sub01_Yangmiao",138,"v_80",20,"v",4,1553158380,333.63895,"sub01_Yangmiao-v_80",1,"redleft-greenright","inc",1,1,0.924390885375522
"139","red","right","hit",0,419.4,"sub01_Yangmiao",139,"v_80",20,"v",4,1553158380,335.9304,"sub01_Yangmiao-v_80",1,"redleft-greenright","inc",0,1,0.700839376305342
"140","red","right","hit",0,448.6,"sub01_Yangmiao",140,"v_80",20,"v",4,1553158380,338.4718,"sub01_Yangmiao-v_80",1,"redleft-greenright","inc",0,1,0.870450542295251
"141","red","right","hit",0,399.6,"sub01_Yangmiao",141,"v_80",20,"v",4,1553158380,340.88825,"sub01_Yangmiao-v_80",1,"redleft-greenright","inc",0,1,0.94389949524666
"142","green","left","hit",1,474.5,"sub01_Yangmiao",142,"v_80",20,"v",4,1553158380,343.0547,"sub01_Yangmiao-v_80",1,"redleft-greenright","inc",1,1,0.678221414297746
"143","red","right","hit",0,431.4,"sub01_Yangmiao",143,"v_80",20,"v",4,1553158380,345.5961,"sub01_Yangmiao-v_80",1,"redleft-greenright","inc",0,1,0.844989915949822
"144","green","left","hit",1,436.5,"sub01_Yangmiao",144,"v_80",20,"v",4,1553158380,348.1375,"sub01_Yangmiao-v_80",1,"redleft-greenright","inc",1,1,0.7615536977726
"145","green","right","hit",1,529.1,"sub01_Yangmiao",145,"v_80",20,"v",4,1553158380,350.17895,"sub01_Yangmiao-v_80",1,"redleft-greenright","con",1,1,0.186072643703396
"146","red","left","hit",0,462.4,"sub01_Yangmiao",146,"v_80",20,"v",4,1553158380,352.7204,"sub01_Yangmiao-v_80",1,"redleft-greenright","con",0,1,0.212275793315334
"147","red","left","hit",0,517.1,"sub01_Yangmiao",147,"v_80",20,"v",4,1553158380,355.1368,"sub01_Yangmiao-v_80",1,"redleft-greenright","con",0,1,0.615518217360323
"148","red","right","hit",0,560.4,"sub01_Yangmiao",148,"v_80",20,"v",4,1553158380,357.30325,"sub01_Yangmiao-v_80",1,"redleft-greenright","inc",0,1,0.445970977490845
"149","red","right","hit",0,661.4,"sub01_Yangmiao",149,"v_80",20,"v",4,1553158380,359.84465,"sub01_Yangmiao-v_80",1,"redleft-greenright","inc",0,1,0.760081529004933
"150","red","right","hit",0,396.3,"sub01_Yangmiao",150,"v_80",20,"v",4,1553158380,362.2611,"sub01_Yangmiao-v_80",1,"redleft-greenright","inc",0,1,0.896104950488113
"151","green","right","hit",1,521.3,"sub01_Yangmiao",151,"v_80",20,"v",4,1553158380,364.8025,"sub01_Yangmiao-v_80",1,"redleft-greenright","con",1,1,0.0449910391155306
"152","red","right","hit",0,496.3,"sub01_Yangmiao",152,"v_80",20,"v",4,1553158380,367.21895,"sub01_Yangmiao-v_80",1,"redleft-greenright","inc",0,1,0.466132111469711
"153","green","left","hit",1,461.3,"sub01_Yangmiao",153,"v_80",20,"v",4,1553158380,369.76035,"sub01_Yangmiao-v_80",1,"redleft-greenright","inc",1,1,0.433098159764513
"154","green","left","hit",1,494,"sub01_Yangmiao",154,"v_80",20,"v",4,1553158380,372.0518,"sub01_Yangmiao-v_80",1,"redleft-greenright","inc",1,1,0.754507043516226
"155","green","left","hit",1,443.3,"sub01_Yangmiao",155,"v_80",20,"v",4,1553158380,374.5932,"sub01_Yangmiao-v_80",1,"redleft-greenright","inc",1,1,0.893690957753622
"156","green","right","hit",1,586.3,"sub01_Yangmiao",156,"v_80",20,"v",4,1553158380,377.0096,"sub01_Yangmiao-v_80",1,"redleft-greenright","con",1,1,0.397469736185773
"157","red","right","hit",0,545,"sub01_Yangmiao",157,"v_80",20,"v",4,1553158380,379.42605,"sub01_Yangmiao-v_80",1,"redleft-greenright","inc",0,1,0.26092160112456
"158","red","right","hit",0,559.9,"sub01_Yangmiao",158,"v_80",20,"v",4,1553158380,381.84245,"sub01_Yangmiao-v_80",1,"redleft-greenright","inc",0,1,0.639261840757598
"159","red","left","hit",0,501.2,"sub01_Yangmiao",159,"v_80",20,"v",4,1553158380,384.3839,"sub01_Yangmiao-v_80",1,"redleft-greenright","con",0,1,0.326849329512912
"160","green","left","hit",1,547.9,"sub01_Yangmiao",160,"v_80",20,"v",4,1553158380,386.8003,"sub01_Yangmiao-v_80",1,"redleft-greenright","inc",1,1,0.328559370878361
"161","green","left","hit",1,804.2,"sub01_Yangmiao",161,"v_20",20,"v",1,1553159249,0.2139,"sub01_Yangmiao-v_20",1,"redleft-greenright","inc",1,2,0.672275286412854
"162","green","left","hit",1,433.2,"sub01_Yangmiao",162,"v_20",20,"v",1,1553159249,2.7553,"sub01_Yangmiao-v_20",1,"redleft-greenright","inc",1,2,0.858081058939787
"163","green","left","hit",1,374.3,"sub01_Yangmiao",163,"v_20",20,"v",1,1553159249,5.2967,"sub01_Yangmiao-v_20",1,"redleft-greenright","inc",1,2,0.938542975257505
"164","red","left","hit",0,451.3,"sub01_Yangmiao",164,"v_20",20,"v",1,1553159249,7.8381,"sub01_Yangmiao-v_20",1,"redleft-greenright","con",0,2,0.0266135433507578
"165","red","left","hit",0,384.2,"sub01_Yangmiao",165,"v_20",20,"v",1,1553159249,10.37955,"sub01_Yangmiao-v_20",1,"redleft-greenright","con",0,2,0.524897982220273
"166","red","right","hit",0,407.7,"sub01_Yangmiao",166,"v_20",20,"v",1,1553159249,12.79595,"sub01_Yangmiao-v_20",1,"redleft-greenright","inc",0,2,0.536271097725734
"167","red","right","hit",0,454.2,"sub01_Yangmiao",167,"v_20",20,"v",1,1553159249,15.2124,"sub01_Yangmiao-v_20",1,"redleft-greenright","inc",0,2,0.799185377173947
"168","red","right","hit",0,363.2,"sub01_Yangmiao",168,"v_20",20,"v",1,1553159249,17.7538,"sub01_Yangmiao-v_20",1,"redleft-greenright","inc",0,2,0.913038603927863
"169","green","left","hit",1,410.2,"sub01_Yangmiao",169,"v_20",20,"v",1,1553159249,20.1702,"sub01_Yangmiao-v_20",1,"redleft-greenright","inc",1,2,0.38776330693759
"170","green","left","hit",1,505.2,"sub01_Yangmiao",170,"v_20",20,"v",1,1553159249,22.58665,"sub01_Yangmiao-v_20",1,"redleft-greenright","inc",1,2,0.734875096215412
"171","green","left","hit",1,438.1,"sub01_Yangmiao",171,"v_20",20,"v",1,1553159249,25.12805,"sub01_Yangmiao-v_20",1,"redleft-greenright","inc",1,2,0.885189477528388
"172","green","left","hit",1,469.1,"sub01_Yangmiao",172,"v_20",20,"v",1,1553159249,27.5445,"sub01_Yangmiao-v_20",1,"redleft-greenright","inc",1,2,0.950282090131697
"173","red","right","hit",0,444.1,"sub01_Yangmiao",173,"v_20",20,"v",1,1553159249,29.46095,"sub01_Yangmiao-v_20",1,"redleft-greenright","inc",0,2,0.627889290304357
"174","red","right","hit",0,501.4,"sub01_Yangmiao",174,"v_20",20,"v",1,1553159249,31.7524,"sub01_Yangmiao-v_20",1,"redleft-greenright","inc",0,2,0.838860007537615
"175","green","left","hit",1,922.1,"sub01_Yangmiao",175,"v_20",20,"v",1,1553159249,34.2938,"sub01_Yangmiao-v_20",1,"redleft-greenright","inc",1,2,0.751646065653194
"176","red","right","hit",0,375.4,"sub01_Yangmiao",176,"v_20",20,"v",1,1553159249,36.8352,"sub01_Yangmiao-v_20",1,"redleft-greenright","inc",0,2,0.812002258170855
"177","red","right","hit",0,481.9,"sub01_Yangmiao",177,"v_20",20,"v",1,1553159249,39.00165,"sub01_Yangmiao-v_20",1,"redleft-greenright","inc",0,2,0.918588866399272
"178","green","left","hit",1,439,"sub01_Yangmiao",178,"v_20",20,"v",1,1553159249,41.5431,"sub01_Yangmiao-v_20",1,"redleft-greenright","inc",1,2,0.706405855239316
"179","red","left","hit",0,428,"sub01_Yangmiao",179,"v_20",20,"v",1,1553159249,44.0845,"sub01_Yangmiao-v_20",1,"redleft-greenright","con",0,2,0.127138932153908
"180","green","right","hit",1,331,"sub01_Yangmiao",180,"v_20",20,"v",1,1553159249,46.5009,"sub01_Yangmiao-v_20",1,"redleft-greenright","con",1,2,0.255572202604607
"181","green","left","hit",1,537.9,"sub01_Yangmiao",181,"v_20",20,"v",1,1553159249,48.91735,"sub01_Yangmiao-v_20",1,"redleft-greenright","inc",1,2,0.446360366612428
"182","red","right","hit",0,479,"sub01_Yangmiao",182,"v_20",20,"v",1,1553159249,51.45875,"sub01_Yangmiao-v_20",1,"redleft-greenright","inc",0,2,0.400898545021718
"183","red","right","hit",0,525.8,"sub01_Yangmiao",183,"v_20",20,"v",1,1553159249,53.8752,"sub01_Yangmiao-v_20",1,"redleft-greenright","inc",0,2,0.740563221041486
"184","green","left","hit",1,476.9,"sub01_Yangmiao",184,"v_20",20,"v",1,1553159249,56.2916,"sub01_Yangmiao-v_20",1,"redleft-greenright","inc",1,2,0.63687572193539
"185","red","right","hit",0,418,"sub01_Yangmiao",185,"v_20",20,"v",1,1553159249,58.833,"sub01_Yangmiao-v_20",1,"redleft-greenright","inc",0,2,0.781132146135576
"186","red","right","hit",0,874.9,"sub01_Yangmiao",186,"v_20",20,"v",1,1553159249,61.12445,"sub01_Yangmiao-v_20",1,"redleft-greenright","inc",0,2,0.905220775959879
"187","red","right","hit",0,469.7,"sub01_Yangmiao",187,"v_20",20,"v",1,1553159249,63.2909,"sub01_Yangmiao-v_20",1,"redleft-greenright","inc",0,2,0.958956506626999
"188","red","left","hit",0,490.8,"sub01_Yangmiao",188,"v_20",20,"v",1,1553159249,65.8323,"sub01_Yangmiao-v_20",1,"redleft-greenright","con",0,2,0.369267809567532
"189","red","right","hit",0,495.8,"sub01_Yangmiao",189,"v_20",20,"v",1,1553159249,68.37375,"sub01_Yangmiao-v_20",1,"redleft-greenright","inc",0,2,0.849718571329068
"190","green","right","hit",1,415.2,"sub01_Yangmiao",190,"v_20",20,"v",1,1553159249,70.79015,"sub01_Yangmiao-v_20",1,"redleft-greenright","con",1,2,0.0650783426875229
"191","green","left","hit",1,403.8,"sub01_Yangmiao",191,"v_20",20,"v",1,1553159249,73.33155,"sub01_Yangmiao-v_20",1,"redleft-greenright","inc",1,2,0.380682440090917
"192","red","right","hit",0,624.7,"sub01_Yangmiao",192,"v_20",20,"v",1,1553159249,75.87295,"sub01_Yangmiao-v_20",1,"redleft-greenright","inc",0,2,0.46832809690719
"193","green","right","incorrect",0,567.8,"sub01_Yangmiao",193,"v_20",20,"v",1,1553159249,78.2894,"sub01_Yangmiao-v_20",1,"redleft-greenright","con",1,2,0.769763126337021
"194","red","right","hit",0,412.9,"sub01_Yangmiao",194,"v_20",20,"v",1,1553159249,80.8308,"sub01_Yangmiao-v_20",1,"redleft-greenright","inc",0,2,0.375715125310126
"195","green","right","hit",1,409.7,"sub01_Yangmiao",195,"v_20",20,"v",1,1553159249,82.87225,"sub01_Yangmiao-v_20",1,"redleft-greenright","con",1,2,0.270342286262569
"196","green","left","hit",1,526.7,"sub01_Yangmiao",196,"v_20",20,"v",1,1553159249,85.4137,"sub01_Yangmiao-v_20",1,"redleft-greenright","inc",1,2,0.564121066463198
"197","green","left","hit",1,491.8,"sub01_Yangmiao",197,"v_20",20,"v",1,1553159249,87.9551,"sub01_Yangmiao-v_20",1,"redleft-greenright","inc",1,2,0.81124561525767
"198","red","right","hit",0,544.6,"sub01_Yangmiao",198,"v_20",20,"v",1,1553159249,89.99655,"sub01_Yangmiao-v_20",1,"redleft-greenright","inc",0,2,0.424338405407226
"199","green","left","hit",1,461.6,"sub01_Yangmiao",199,"v_20",20,"v",1,1553159249,92.53795,"sub01_Yangmiao-v_20",1,"redleft-greenright","inc",1,2,0.803329956523419
"200","green","left","hit",1,498.5,"sub01_Yangmiao",200,"v_20",20,"v",1,1553159249,95.0794,"sub01_Yangmiao-v_20",1,"redleft-greenright","inc",1,2,0.914833385609046
"201","green","right","hit",1,553.6,"sub01_Yangmiao",201,"v_20",80,"v",2,1553159249,97.4958,"sub01_Yangmiao-v_20",1,"redleft-greenright","con",1,2,0.368139874612443
"202","red","right","hit",0,646.5,"sub01_Yangmiao",202,"v_20",80,"v",2,1553159249,99.53725,"sub01_Yangmiao-v_20",1,"redleft-greenright","inc",0,2,0.27362269665797
"203","green","left","hit",1,485.5,"sub01_Yangmiao",203,"v_20",80,"v",2,1553159249,101.9537,"sub01_Yangmiao-v_20",1,"redleft-greenright","inc",1,2,0.743572470464635
"204","green","right","hit",1,538.5,"sub01_Yangmiao",204,"v_20",80,"v",2,1553159249,104.4951,"sub01_Yangmiao-v_20",1,"redleft-greenright","con",1,2,0.394509169921337
"205","green","right","hit",1,399.5,"sub01_Yangmiao",205,"v_20",80,"v",2,1553159249,107.0365,"sub01_Yangmiao-v_20",1,"redleft-greenright","con",1,2,0.737796345945747
"206","red","left","hit",0,492.4,"sub01_Yangmiao",206,"v_20",80,"v",2,1553159249,109.57795,"sub01_Yangmiao-v_20",1,"redleft-greenright","con",0,2,0.295432940850597
"207","red","left","hit",0,465.5,"sub01_Yangmiao",207,"v_20",80,"v",2,1553159249,112.11935,"sub01_Yangmiao-v_20",1,"redleft-greenright","con",0,2,0.656106545168798
"208","red","left","hit",0,368.5,"sub01_Yangmiao",208,"v_20",80,"v",2,1553159249,114.53575,"sub01_Yangmiao-v_20",1,"redleft-greenright","con",0,2,0.851079296361321
"209","green","right","hit",1,461.4,"sub01_Yangmiao",209,"v_20",80,"v",2,1553159249,117.0772,"sub01_Yangmiao-v_20",1,"redleft-greenright","con",1,2,0.647401370759889
"210","green","right","hit",1,490.5,"sub01_Yangmiao",210,"v_20",80,"v",2,1553159249,119.6186,"sub01_Yangmiao-v_20",1,"redleft-greenright","con",1,2,0.847309580247042
"211","green","right","hit",1,311.5,"sub01_Yangmiao",211,"v_20",80,"v",2,1553159249,122.16,"sub01_Yangmiao-v_20",1,"redleft-greenright","con",1,2,0.933878460235142
"212","red","left","hit",0,532.6,"sub01_Yangmiao",212,"v_20",80,"v",2,1553159249,124.7014,"sub01_Yangmiao-v_20",1,"redleft-greenright","con",0,2,0.666112451344425
"213","red","left","hit",0,515.5,"sub01_Yangmiao",213,"v_20",80,"v",2,1553159249,127.11785,"sub01_Yangmiao-v_20",1,"redleft-greenright","con",0,2,0.855412285452225
"214","red","left","hit",0,400.5,"sub01_Yangmiao",214,"v_20",80,"v",2,1553159249,129.65925,"sub01_Yangmiao-v_20",1,"redleft-greenright","con",0,2,0.937387281189949
"215","red","left","hit",0,405.4,"sub01_Yangmiao",215,"v_20",80,"v",2,1553159249,132.20065,"sub01_Yangmiao-v_20",1,"redleft-greenright","con",0,2,0.97288599125418
"216","red","left","hit",0,428.5,"sub01_Yangmiao",216,"v_20",80,"v",2,1553159249,134.6171,"sub01_Yangmiao-v_20",1,"redleft-greenright","con",0,2,0.988258464346538
"217","red","left","hit",0,379.6,"sub01_Yangmiao",217,"v_20",80,"v",2,1553159249,137.0335,"sub01_Yangmiao-v_20",1,"redleft-greenright","con",0,2,0.994915408459371
"218","green","right","hit",1,480.4,"sub01_Yangmiao",218,"v_20",80,"v",2,1553159249,139.5749,"sub01_Yangmiao-v_20",1,"redleft-greenright","con",1,2,0.568574875734253
"219","green","right","hit",1,335.3,"sub01_Yangmiao",219,"v_20",80,"v",2,1553159249,141.99135,"sub01_Yangmiao-v_20",1,"redleft-greenright","con",1,2,0.813174306836996
"220","green","right","hit",1,364.4,"sub01_Yangmiao",220,"v_20",80,"v",2,1553159249,144.53275,"sub01_Yangmiao-v_20",1,"redleft-greenright","con",1,2,0.91909641404116
"221","red","left","hit",0,465.4,"sub01_Yangmiao",221,"v_20",80,"v",2,1553159249,147.07415,"sub01_Yangmiao-v_20",1,"redleft-greenright","con",0,2,0.689870034233641
"222","green","left","hit",1,532.4,"sub01_Yangmiao",222,"v_20",80,"v",2,1553159249,149.2406,"sub01_Yangmiao-v_20",1,"redleft-greenright","inc",1,2,0.134299656107253
"223","green","right","hit",1,351.3,"sub01_Yangmiao",223,"v_20",80,"v",2,1553159249,151.40705,"sub01_Yangmiao-v_20",1,"redleft-greenright","con",1,2,0.744543393557642
"224","green","right","hit",1,382.6,"sub01_Yangmiao",224,"v_20",80,"v",2,1553159249,153.8235,"sub01_Yangmiao-v_20",1,"redleft-greenright","con",1,2,0.889376267427892
"225","red","left","hit",0,507.3,"sub01_Yangmiao",225,"v_20",80,"v",2,1553159249,156.3649,"sub01_Yangmiao-v_20",1,"redleft-greenright","con",0,2,0.459261444284642
"226","red","right","hit",0,570.2,"sub01_Yangmiao",226,"v_20",80,"v",2,1553159249,158.2814,"sub01_Yangmiao-v_20",1,"redleft-greenright","inc",0,2,0.172133107205738
"227","green","right","hit",1,481.2,"sub01_Yangmiao",227,"v_20",80,"v",2,1553159249,160.6978,"sub01_Yangmiao-v_20",1,"redleft-greenright","con",1,2,0.40407510144896
"228","red","left","hit",0,384.3,"sub01_Yangmiao",228,"v_20",80,"v",2,1553159249,163.11425,"sub01_Yangmiao-v_20",1,"redleft-greenright","con",0,2,0.639813997960542
"229","green","right","hit",1,471.1,"sub01_Yangmiao",229,"v_20",80,"v",2,1553159249,165.53065,"sub01_Yangmiao-v_20",1,"redleft-greenright","con",1,2,0.675458030829979
"230","green","left","hit",1,516.1,"sub01_Yangmiao",230,"v_20",80,"v",2,1553159249,167.5721,"sub01_Yangmiao-v_20",1,"redleft-greenright","inc",1,2,0.250508153764752
"231","green","right","hit",1,549,"sub01_Yangmiao",231,"v_20",80,"v",2,1553159249,169.86355,"sub01_Yangmiao-v_20",1,"redleft-greenright","con",1,2,0.760685857019233
"232","green","right","hit",1,458,"sub01_Yangmiao",232,"v_20",80,"v",2,1553159249,172.40495,"sub01_Yangmiao-v_20",1,"redleft-greenright","con",1,2,0.896366650592764
"233","green","right","hit",1,355,"sub01_Yangmiao",233,"v_20",80,"v",2,1553159249,174.6964,"sub01_Yangmiao-v_20",1,"redleft-greenright","con",1,2,0.955122288321149
"234","red","left","hit",0,416.3,"sub01_Yangmiao",234,"v_20",80,"v",2,1553159249,177.2378,"sub01_Yangmiao-v_20",1,"redleft-greenright","con",0,2,0.448821436336047
"235","red","left","hit",0,397,"sub01_Yangmiao",235,"v_20",80,"v",2,1553159249,179.77925,"sub01_Yangmiao-v_20",1,"redleft-greenright","con",0,2,0.761315900671381
"236","red","right","hit",0,483.9,"sub01_Yangmiao",236,"v_20",80,"v",2,1553159249,182.19565,"sub01_Yangmiao-v_20",1,"redleft-greenright","inc",0,2,0.247251558354784
"237","green","left","hit",1,561.1,"sub01_Yangmiao",237,"v_20",80,"v",2,1553159249,184.73705,"sub01_Yangmiao-v_20",1,"redleft-greenright","inc",1,2,0.212350473510059
"238","red","left","hit",0,518,"sub01_Yangmiao",238,"v_20",80,"v",2,1553159249,187.27845,"sub01_Yangmiao-v_20",1,"redleft-greenright","con",0,2,0.384445331843634
"239","red","right","hit",0,466.9,"sub01_Yangmiao",239,"v_20",80,"v",2,1553159249,189.8199,"sub01_Yangmiao-v_20",1,"redleft-greenright","inc",0,2,0.569734052707478
"240","red","left","hit",0,375.9,"sub01_Yangmiao",240,"v_20",80,"v",2,1553159249,192.3613,"sub01_Yangmiao-v_20",1,"redleft-greenright","con",0,2,0.66929330044007
"241","green","left","hit",1,447.1,"sub01_Yangmiao",241,"v_20",20,"v",3,1553159249,194.7777,"sub01_Yangmiao-v_20",1,"redleft-greenright","inc",1,2,0.1432102696478
"242","green","left","hit",1,355.9,"sub01_Yangmiao",242,"v_20",20,"v",3,1553159249,197.31915,"sub01_Yangmiao-v_20",1,"redleft-greenright","inc",1,2,0.581807896624596
"243","red","left","hit",0,457.1,"sub01_Yangmiao",243,"v_20",20,"v",3,1553159249,199.86055,"sub01_Yangmiao-v_20",1,"redleft-greenright","con",0,2,0.181095224162882
"244","red","right","hit",0,561.8,"sub01_Yangmiao",244,"v_20",20,"v",3,1553159249,202.152,"sub01_Yangmiao-v_20",1,"redleft-greenright","inc",0,2,0.586766592841583
"245","green","left","hit",1,382.9,"sub01_Yangmiao",245,"v_20",20,"v",3,1553159249,204.6934,"sub01_Yangmiao-v_20",1,"redleft-greenright","inc",1,2,0.427261333220222
"246","green","left","hit",1,470.1,"sub01_Yangmiao",246,"v_20",20,"v",3,1553159249,207.1098,"sub01_Yangmiao-v_20",1,"redleft-greenright","inc",1,2,0.751979445785646
"247","red","right","hit",0,522.9,"sub01_Yangmiao",247,"v_20",20,"v",3,1553159249,209.65125,"sub01_Yangmiao-v_20",1,"redleft-greenright","inc",0,2,0.668853844910324
"248","green","left","hit",1,433.8,"sub01_Yangmiao",248,"v_20",20,"v",3,1553159249,212.06765,"sub01_Yangmiao-v_20",1,"redleft-greenright","inc",1,2,0.78471741224075
"249","red","right","hit",0,494.9,"sub01_Yangmiao",249,"v_20",20,"v",3,1553159249,214.60905,"sub01_Yangmiao-v_20",1,"redleft-greenright","inc",0,2,0.75861181201218
"250","red","left","hit",0,461.8,"sub01_Yangmiao",250,"v_20",20,"v",3,1553159249,217.02545,"sub01_Yangmiao-v_20",1,"redleft-greenright","con",0,2,0.205001227317054
"251","green","left","hit",1,394.8,"sub01_Yangmiao",251,"v_20",20,"v",3,1553159249,219.5669,"sub01_Yangmiao-v_20",1,"redleft-greenright","inc",1,2,0.388032439175574
"252","green","left","hit",1,337.8,"sub01_Yangmiao",252,"v_20",20,"v",3,1553159249,221.98335,"sub01_Yangmiao-v_20",1,"redleft-greenright","inc",1,2,0.734991642086492
"253","red","right","hit",0,422.8,"sub01_Yangmiao",253,"v_20",20,"v",3,1553159249,224.0248,"sub01_Yangmiao-v_20",1,"redleft-greenright","inc",0,2,0.650839486218084
"254","green","right","hit",1,395.7,"sub01_Yangmiao",254,"v_20",20,"v",3,1553159249,226.5662,"sub01_Yangmiao-v_20",1,"redleft-greenright","con",1,2,0.151201567417933
"255","green","left","hit",1,544.8,"sub01_Yangmiao",255,"v_20",20,"v",3,1553159249,229.1076,"sub01_Yangmiao-v_20",1,"redleft-greenright","inc",1,2,0.702612738515109
"256","green","left","hit",1,447.7,"sub01_Yangmiao",256,"v_20",20,"v",3,1553159249,231.52405,"sub01_Yangmiao-v_20",1,"redleft-greenright","inc",1,2,0.871218484645926
"257","red","right","hit",0,444.7,"sub01_Yangmiao",257,"v_20",20,"v",3,1553159249,234.06545,"sub01_Yangmiao-v_20",1,"redleft-greenright","inc",0,2,0.454922612367532
"258","green","left","hit",1,351.6,"sub01_Yangmiao",258,"v_20",20,"v",3,1553159249,236.2319,"sub01_Yangmiao-v_20",1,"redleft-greenright","inc",1,2,0.822164439959615
"259","red","right","hit",0,484.6,"sub01_Yangmiao",259,"v_20",20,"v",3,1553159249,238.7733,"sub01_Yangmiao-v_20",1,"redleft-greenright","inc",0,2,0.691426694859837
"260","red","right","hit",0,497.6,"sub01_Yangmiao",260,"v_20",20,"v",3,1553159249,241.3147,"sub01_Yangmiao-v_20",1,"redleft-greenright","inc",0,2,0.866374445107885
"261","green","left","hit",1,464.7,"sub01_Yangmiao",261,"v_20",20,"v",3,1553159249,243.73115,"sub01_Yangmiao-v_20",1,"redleft-greenright","inc",1,2,0.722466718821553
"262","green","right","hit",1,631.7,"sub01_Yangmiao",262,"v_20",20,"v",3,1553159249,246.14755,"sub01_Yangmiao-v_20",1,"redleft-greenright","con",1,2,0.179356830964624
"263","red","left","hit",0,464.6,"sub01_Yangmiao",263,"v_20",20,"v",3,1553159249,248.439,"sub01_Yangmiao-v_20",1,"redleft-greenright","con",0,2,0.224551061534677
"264","red","right","hit",0,639.5,"sub01_Yangmiao",264,"v_20",20,"v",3,1553159249,250.85545,"sub01_Yangmiao-v_20",1,"redleft-greenright","inc",0,2,0.427876676278577
"265","red","right","hit",0,462.5,"sub01_Yangmiao",265,"v_20",20,"v",3,1553159249,253.27185,"sub01_Yangmiao-v_20",1,"redleft-greenright","inc",0,2,0.75224591587963
"266","red","right","hit",0,433.5,"sub01_Yangmiao",266,"v_20",20,"v",3,1553159249,255.4383,"sub01_Yangmiao-v_20",1,"redleft-greenright","inc",0,2,0.892711791927904
"267","red","right","hit",0,518.5,"sub01_Yangmiao",267,"v_20",20,"v",3,1553159249,257.9797,"sub01_Yangmiao-v_20",1,"redleft-greenright","inc",0,2,0.953539576825991
"268","green","right","hit",1,491.5,"sub01_Yangmiao",268,"v_20",20,"v",3,1553159249,260.52115,"sub01_Yangmiao-v_20",1,"redleft-greenright","con",1,2,0.0201193678251897
"269","green","left","hit",1,472.5,"sub01_Yangmiao",269,"v_20",20,"v",3,1553159249,263.06255,"sub01_Yangmiao-v_20",1,"redleft-greenright","inc",1,2,0.475624729534776
"270","red","right","hit",0,421.5,"sub01_Yangmiao",270,"v_20",20,"v",3,1553159249,265.60395,"sub01_Yangmiao-v_20",1,"redleft-greenright","inc",0,2,0.484242329153399
"271","red","left","hit",0,514.4,"sub01_Yangmiao",271,"v_20",20,"v",3,1553159249,267.6454,"sub01_Yangmiao-v_20",1,"redleft-greenright","con",0,2,0.302071803930401
"272","red","right","hit",0,449.3,"sub01_Yangmiao",272,"v_20",20,"v",3,1553159249,269.5619,"sub01_Yangmiao-v_20",1,"redleft-greenright","inc",0,2,0.700634553776548
"273","green","left","hit",1,366.3,"sub01_Yangmiao",273,"v_20",20,"v",3,1553159249,272.1033,"sub01_Yangmiao-v_20",1,"redleft-greenright","inc",1,2,0.38443897366537
"274","red","right","hit",0,461.4,"sub01_Yangmiao",274,"v_20",20,"v",3,1553159249,274.51975,"sub01_Yangmiao-v_20",1,"redleft-greenright","inc",0,2,0.768592545647858
"275","green","left","hit",1,370.2,"sub01_Yangmiao",275,"v_20",20,"v",3,1553159249,277.06115,"sub01_Yangmiao-v_20",1,"redleft-greenright","inc",1,2,0.669291303653783
"276","red","right","hit",0,441.3,"sub01_Yangmiao",276,"v_20",20,"v",3,1553159249,279.47755,"sub01_Yangmiao-v_20",1,"redleft-greenright","inc",0,2,0.789934757306451
"277","green","left","hit",1,544.5,"sub01_Yangmiao",277,"v_20",20,"v",3,1553159249,281.894,"sub01_Yangmiao-v_20",1,"redleft-greenright","inc",1,2,0.758749195958317
"278","green","right","hit",1,397.3,"sub01_Yangmiao",278,"v_20",20,"v",3,1553159249,284.4354,"sub01_Yangmiao-v_20",1,"redleft-greenright","con",1,2,0.20336271976817
"279","red","right","hit",0,482.2,"sub01_Yangmiao",279,"v_20",20,"v",3,1553159249,286.9768,"sub01_Yangmiao-v_20",1,"redleft-greenright","inc",0,2,0.388832181392351
"280","green","left","hit",1,391.2,"sub01_Yangmiao",280,"v_20",20,"v",3,1553159249,289.51825,"sub01_Yangmiao-v_20",1,"redleft-greenright","inc",1,2,0.708023623770702
"281","red","right","hit",0,476.3,"sub01_Yangmiao",281,"v_20",80,"v",4,1553159249,292.05965,"sub01_Yangmiao-v_20",1,"redleft-greenright","inc",0,2,0.670670990819156
"282","green","left","hit",1,667.2,"sub01_Yangmiao",282,"v_20",80,"v",4,1553159249,293.9761,"sub01_Yangmiao-v_20",1,"redleft-greenright","inc",1,2,0.770913083548301
"283","red","left","hit",0,694.2,"sub01_Yangmiao",283,"v_20",80,"v",4,1553159249,296.14255,"sub01_Yangmiao-v_20",1,"redleft-greenright","con",0,2,0.0992045190541584
"284","green","left","hit",1,573.2,"sub01_Yangmiao",284,"v_20",80,"v",4,1553159249,298.559,"sub01_Yangmiao-v_20",1,"redleft-greenright","inc",1,2,0.43967095256026
"285","green","right","hit",1,618.1,"sub01_Yangmiao",285,"v_20",80,"v",4,1553159249,301.1004,"sub01_Yangmiao-v_20",1,"redleft-greenright","con",1,2,0.36368580453376
"286","red","left","hit",0,569.1,"sub01_Yangmiao",286,"v_20",80,"v",4,1553159249,303.5168,"sub01_Yangmiao-v_20",1,"redleft-greenright","con",0,2,0.313363089870236
"287","green","right","hit",1,416.2,"sub01_Yangmiao",287,"v_20",80,"v",4,1553159249,305.93325,"sub01_Yangmiao-v_20",1,"redleft-greenright","con",1,2,0.662773769571373
"288","red","left","hit",0,853.3,"sub01_Yangmiao",288,"v_20",80,"v",4,1553159249,308.47465,"sub01_Yangmiao-v_20",1,"redleft-greenright","con",0,2,0.619557828916431
"289","green","left","hit",1,532.1,"sub01_Yangmiao",289,"v_20",80,"v",4,1553159249,310.8911,"sub01_Yangmiao-v_20",1,"redleft-greenright","inc",1,2,0.164747874714281
"290","red","left","hit",0,409.1,"sub01_Yangmiao",290,"v_20",80,"v",4,1553159249,313.4325,"sub01_Yangmiao-v_20",1,"redleft-greenright","con",0,2,0.407679773400676
"291","green","right","hit",1,382.1,"sub01_Yangmiao",291,"v_20",80,"v",4,1553159249,315.9739,"sub01_Yangmiao-v_20",1,"redleft-greenright","con",1,2,0.635009801975259
"292","green","left","hit",1,515.1,"sub01_Yangmiao",292,"v_20",80,"v",4,1553159249,318.5153,"sub01_Yangmiao-v_20",1,"redleft-greenright","inc",1,2,0.323409921714896
"293","red","left","hit",0,464,"sub01_Yangmiao",293,"v_20",80,"v",4,1553159249,321.05675,"sub01_Yangmiao-v_20",1,"redleft-greenright","con",0,2,0.330238117868975
"294","red","right","hit",0,735.1,"sub01_Yangmiao",294,"v_20",80,"v",4,1553159249,323.47315,"sub01_Yangmiao-v_20",1,"redleft-greenright","inc",0,2,0.320158556349829
"295","red","left","hit",0,388,"sub01_Yangmiao",295,"v_20",80,"v",4,1553159249,326.01455,"sub01_Yangmiao-v_20",1,"redleft-greenright","con",0,2,0.625531121580588
"296","green","right","hit",1,441,"sub01_Yangmiao",296,"v_20",80,"v",4,1553159249,328.556,"sub01_Yangmiao-v_20",1,"redleft-greenright","con",1,2,0.378036764107349
"297","green","right","hit",1,410.1,"sub01_Yangmiao",297,"v_20",80,"v",4,1553159249,330.8474,"sub01_Yangmiao-v_20",1,"redleft-greenright","con",1,2,0.730663083506527
"298","red","left","hit",0,455,"sub01_Yangmiao",298,"v_20",80,"v",4,1553159249,333.38885,"sub01_Yangmiao-v_20",1,"redleft-greenright","con",0,2,0.677682633350647
"299","red","right","hit",0,492.1,"sub01_Yangmiao",299,"v_20",80,"v",4,1553159249,335.93025,"sub01_Yangmiao-v_20",1,"redleft-greenright","inc",0,2,0.221976992685365
"300","red","left","hit",0,409,"sub01_Yangmiao",300,"v_20",80,"v",4,1553159249,338.47165,"sub01_Yangmiao-v_20",1,"redleft-greenright","con",0,2,0.761384493581982
"301","green","right","hit",1,430,"sub01_Yangmiao",301,"v_20",80,"v",4,1553159249,341.01305,"sub01_Yangmiao-v_20",1,"redleft-greenright","con",1,2,0.412790319125822
"302","red","left","hit",0,482.9,"sub01_Yangmiao",302,"v_20",80,"v",4,1553159249,343.05455,"sub01_Yangmiao-v_20",1,"redleft-greenright","con",0,2,0.787671068097867
"303","green","right","hit",1,431.9,"sub01_Yangmiao",303,"v_20",80,"v",4,1553159249,345.59595,"sub01_Yangmiao-v_20",1,"redleft-greenright","con",1,2,0.678195045494311
"304","green","right","hit",1,596.8,"sub01_Yangmiao",304,"v_20",80,"v",4,1553159249,347.6374,"sub01_Yangmiao-v_20",1,"redleft-greenright","con",1,2,0.860644570037184
"305","red","left","hit",0,337.9,"sub01_Yangmiao",305,"v_20",80,"v",4,1553159249,350.1788,"sub01_Yangmiao-v_20",1,"redleft-greenright","con",0,2,0.71461070476264
"306","green","right","hit",1,440.9,"sub01_Yangmiao",306,"v_20",80,"v",4,1553159249,352.59525,"sub01_Yangmiao-v_20",1,"redleft-greenright","con",1,2,0.818843701405906
"307","red","left","hit",0,375.9,"sub01_Yangmiao",307,"v_20",80,"v",4,1553159249,355.01165,"sub01_Yangmiao-v_20",1,"redleft-greenright","con",0,2,0.772981756751719
"308","red","left","hit",0,502.8,"sub01_Yangmiao",308,"v_20",80,"v",4,1553159249,357.4281,"sub01_Yangmiao-v_20",1,"redleft-greenright","con",0,2,0.901691305698315
"309","red","left","hit",0,379.8,"sub01_Yangmiao",309,"v_20",80,"v",4,1553159249,359.9695,"sub01_Yangmiao-v_20",1,"redleft-greenright","con",0,2,0.957428093720502
"310","red","left","hit",0,336.8,"sub01_Yangmiao",310,"v_20",80,"v",4,1553159249,362.5109,"sub01_Yangmiao-v_20",1,"redleft-greenright","con",0,2,0.981564527764872
"311","red","left","hit",0,357.8,"sub01_Yangmiao",311,"v_20",80,"v",4,1553159249,365.0523,"sub01_Yangmiao-v_20",1,"redleft-greenright","con",0,2,0.992016645101565
"312","green","right","hit",1,426.8,"sub01_Yangmiao",312,"v_20",80,"v",4,1553159249,367.59375,"sub01_Yangmiao-v_20",1,"redleft-greenright","con",1,2,0.584564722118415
"313","green","right","hit",1,335.8,"sub01_Yangmiao",313,"v_20",80,"v",4,1553159249,370.13515,"sub01_Yangmiao-v_20",1,"redleft-greenright","con",1,2,0.820098600222493
"314","green","right","hit",1,308.7,"sub01_Yangmiao",314,"v_20",80,"v",4,1553159249,372.67655,"sub01_Yangmiao-v_20",1,"redleft-greenright","con",1,2,0.922094931834048
"315","red","left","hit",0,499.7,"sub01_Yangmiao",315,"v_20",80,"v",4,1553159249,375.093,"sub01_Yangmiao-v_20",1,"redleft-greenright","con",0,2,0.689391242018357
"316","green","right","hit",1,410.7,"sub01_Yangmiao",316,"v_20",80,"v",4,1553159249,377.5094,"sub01_Yangmiao-v_20",1,"redleft-greenright","con",1,2,0.838142191426761
"317","green","right","hit",1,387.9,"sub01_Yangmiao",317,"v_20",80,"v",4,1553159249,379.80085,"sub01_Yangmiao-v_20",1,"redleft-greenright","con",1,2,0.929908585337942
"318","green","right","hit",1,392.8,"sub01_Yangmiao",318,"v_20",80,"v",4,1553159249,382.34225,"sub01_Yangmiao-v_20",1,"redleft-greenright","con",1,2,0.969647393272932
"319","green","right","hit",1,431.7,"sub01_Yangmiao",319,"v_20",80,"v",4,1553159249,384.7587,"sub01_Yangmiao-v_20",1,"redleft-greenright","con",1,2,0.986856011687452
"320","red","right","hit",0,554.7,"sub01_Yangmiao",320,"v_20",80,"v",4,1553159249,386.92515,"sub01_Yangmiao-v_20",1,"redleft-greenright","inc",0,2,0.00569191405251953
"321","red","left","hit",0,741.9,"sub01_Yangmiao",321,"v_80",80,"v",1,1553160124,0.21305,"sub01_Yangmiao-v_80.",1,"redleft-greenright","con",0,3,0.573319188828037
"322","green","left","hit",1,499.5,"sub01_Yangmiao",322,"v_80",80,"v",1,1553160124,2.7545,"sub01_Yangmiao-v_80.",1,"redleft-greenright","inc",1,3,0.184771200894301
"323","green","right","hit",1,352,"sub01_Yangmiao",323,"v_80",80,"v",1,1553160124,5.2959,"sub01_Yangmiao-v_80.",1,"redleft-greenright","con",1,3,0.492275898434686
"324","red","left","hit",0,478.9,"sub01_Yangmiao",324,"v_80",80,"v",1,1553160124,7.7123,"sub01_Yangmiao-v_80.",1,"redleft-greenright","con",0,3,0.425960139240274
"325","green","left","hit",1,467.8,"sub01_Yangmiao",325,"v_80",80,"v",1,1553160124,9.75375,"sub01_Yangmiao-v_80.",1,"redleft-greenright","inc",1,3,0.248584027349251
"326","red","left","hit",0,378.8,"sub01_Yangmiao",326,"v_80",80,"v",1,1553160124,12.1702,"sub01_Yangmiao-v_80.",1,"redleft-greenright","con",0,3,0.366760028722005
"327","green","right","hit",1,365.8,"sub01_Yangmiao",327,"v_80",80,"v",1,1553160124,14.33665,"sub01_Yangmiao-v_80.",1,"redleft-greenright","con",1,3,0.606848464416277
"328","green","right","hit",1,458.8,"sub01_Yangmiao",328,"v_80",80,"v",1,1553160124,16.87805,"sub01_Yangmiao-v_80.",1,"redleft-greenright","con",1,3,0.829748422096334
"329","red","left","hit",0,417.8,"sub01_Yangmiao",329,"v_80",80,"v",1,1553160124,19.2945,"sub01_Yangmiao-v_80.",1,"redleft-greenright","con",0,3,0.618746402016544
"330","red","left","hit",0,464.8,"sub01_Yangmiao",330,"v_80",80,"v",1,1553160124,21.7109,"sub01_Yangmiao-v_80.",1,"redleft-greenright","con",0,3,0.834900742428079
"331","green","right","hit",1,407.6,"sub01_Yangmiao",331,"v_80",80,"v",1,1553160124,23.6274,"sub01_Yangmiao-v_80.",1,"redleft-greenright","con",1,3,0.724194003429373
"332","green","right","hit",1,414.6,"sub01_Yangmiao",332,"v_80",80,"v",1,1553160124,26.0438,"sub01_Yangmiao-v_80.",1,"redleft-greenright","con",1,3,0.880564103503437
"333","red","right","hit",0,411.7,"sub01_Yangmiao",333,"v_80",80,"v",1,1553160124,28.5852,"sub01_Yangmiao-v_80.",1,"redleft-greenright","inc",0,3,0.0517208963884324
"334","red","left","hit",0,464.9,"sub01_Yangmiao",334,"v_80",80,"v",1,1553160124,31.12665,"sub01_Yangmiao-v_80.",1,"redleft-greenright","con",0,3,0.663440220216301
"335","red","left","hit",0,417.6,"sub01_Yangmiao",335,"v_80",80,"v",1,1553160124,33.41805,"sub01_Yangmiao-v_80.",1,"redleft-greenright","con",0,3,0.854255094077121
"336","green","right","hit",1,392.6,"sub01_Yangmiao",336,"v_80",80,"v",1,1553160124,35.8345,"sub01_Yangmiao-v_80.",1,"redleft-greenright","con",1,3,0.480459955610221
"337","green","right","hit",1,381.5,"sub01_Yangmiao",337,"v_80",80,"v",1,1553160124,38.3759,"sub01_Yangmiao-v_80.",1,"redleft-greenright","con",1,3,0.77501674459907
"338","red","left","hit",0,396.5,"sub01_Yangmiao",338,"v_80",80,"v",1,1553160124,40.79235,"sub01_Yangmiao-v_80.",1,"redleft-greenright","con",0,3,0.729775503561916
"339","green","right","hit",1,401.5,"sub01_Yangmiao",339,"v_80",80,"v",1,1553160124,43.33375,"sub01_Yangmiao-v_80.",1,"redleft-greenright","con",1,3,0.791952277394644
"340","red","left","hit",0,342.5,"sub01_Yangmiao",340,"v_80",80,"v",1,1553160124,45.87515,"sub01_Yangmiao-v_80.",1,"redleft-greenright","con",0,3,0.77774426277672
"341","green","right","hit",1,459.5,"sub01_Yangmiao",341,"v_80",80,"v",1,1553160124,47.9166,"sub01_Yangmiao-v_80.",1,"redleft-greenright","con",1,3,0.797270882543523
"342","red","left","hit",0,362.4,"sub01_Yangmiao",342,"v_80",80,"v",1,1553160124,50.33305,"sub01_Yangmiao-v_80.",1,"redleft-greenright","con",0,3,0.792808854651375
"343","green","right","hit",1,393.5,"sub01_Yangmiao",343,"v_80",80,"v",1,1553160124,52.74945,"sub01_Yangmiao-v_80.",1,"redleft-greenright","con",1,3,0.798941190827953
"344","red","left","hit",0,428.4,"sub01_Yangmiao",344,"v_80",80,"v",1,1553160124,54.9159,"sub01_Yangmiao-v_80.",1,"redleft-greenright","con",0,3,0.797539890685342
"345","red","left","hit",0,401.3,"sub01_Yangmiao",345,"v_80",80,"v",1,1553160124,57.45735,"sub01_Yangmiao-v_80.",1,"redleft-greenright","con",0,3,0.912326037281803
"346","green","right","hit",1,406.3,"sub01_Yangmiao",346,"v_80",80,"v",1,1553160124,59.99875,"sub01_Yangmiao-v_80.",1,"redleft-greenright","con",1,3,0.717177523772625
"347","green","right","hit",1,347.6,"sub01_Yangmiao",347,"v_80",80,"v",1,1553160124,62.54015,"sub01_Yangmiao-v_80.",1,"redleft-greenright","con",1,3,0.877525665077611
"348","red","left","hit",0,408.4,"sub01_Yangmiao",348,"v_80",80,"v",1,1553160124,65.08155,"sub01_Yangmiao-v_80.",1,"redleft-greenright","con",0,3,0.743001411079999
"349","red","right","incorrect",1,341.4,"sub01_Yangmiao",349,"v_80",80,"v",1,1553160124,67.62295,"sub01_Yangmiao-v_80.",1,"redleft-greenright","inc",0,3,0.824145210374327
"350","red","left","hit",0,522.5,"sub01_Yangmiao",350,"v_80",80,"v",1,1553160124,70.1644,"sub01_Yangmiao-v_80.",1,"redleft-greenright","con",0,3,0.781897859871855
"351","red","left","hit",0,427.4,"sub01_Yangmiao",351,"v_80",80,"v",1,1553160124,72.4558,"sub01_Yangmiao-v_80.",1,"redleft-greenright","con",0,3,0.905552363045328
"352","green","left","hit",1,480.3,"sub01_Yangmiao",352,"v_80",80,"v",1,1553160124,74.99725,"sub01_Yangmiao-v_80.",1,"redleft-greenright","inc",1,3,0.0408999018582777
"353","green","left","hit",1,407.3,"sub01_Yangmiao",353,"v_80",80,"v",1,1553160124,77.41365,"sub01_Yangmiao-v_80.",1,"redleft-greenright","inc",1,3,0.531871037687895
"354","red","right","hit",0,396.3,"sub01_Yangmiao",354,"v_80",80,"v",1,1553160124,79.95505,"sub01_Yangmiao-v_80.",1,"redleft-greenright","inc",0,3,0.527036440591599
"355","red","right","hit",0,555.3,"sub01_Yangmiao",355,"v_80",80,"v",1,1553160124,82.3715,"sub01_Yangmiao-v_80.",1,"redleft-greenright","inc",0,3,0.795186372194477
"356","green","right","hit",1,394.3,"sub01_Yangmiao",356,"v_80",80,"v",1,1553160124,84.7879,"sub01_Yangmiao-v_80.",1,"redleft-greenright","con",1,3,0.0886931377701281
"357","green","right","hit",1,447.4,"sub01_Yangmiao",357,"v_80",80,"v",1,1553160124,87.32935,"sub01_Yangmiao-v_80.",1,"redleft-greenright","con",1,3,0.555198527671789
"358","green","right","hit",1,388.3,"sub01_Yangmiao",358,"v_80",80,"v",1,1553160124,89.87075,"sub01_Yangmiao-v_80.",1,"redleft-greenright","con",1,3,0.807381770987321
"359","green","right","hit",1,401.3,"sub01_Yangmiao",359,"v_80",80,"v",1,1553160124,92.41215,"sub01_Yangmiao-v_80.",1,"redleft-greenright","con",1,3,0.916587996092324
"360","red","left","hit",0,422.3,"sub01_Yangmiao",360,"v_80",80,"v",1,1553160124,94.95355,"sub01_Yangmiao-v_80.",1,"redleft-greenright","con",0,3,0.456751412065066
"361","red","right","hit",0,563.2,"sub01_Yangmiao",361,"v_80",20,"v",2,1553160124,97.495,"sub01_Yangmiao-v_80.",1,"redleft-greenright","inc",0,3,0.1635872620923
"362","green","left","hit",1,456.3,"sub01_Yangmiao",362,"v_80",20,"v",2,1553160124,100.0364,"sub01_Yangmiao-v_80.",1,"redleft-greenright","inc",1,3,0.307998970479129
"363","red","left","hit",0,455.3,"sub01_Yangmiao",363,"v_80",20,"v",2,1553160124,102.4528,"sub01_Yangmiao-v_80.",1,"redleft-greenright","con",0,3,0.337760077906535
"364","red","right","hit",0,486.1,"sub01_Yangmiao",364,"v_80",20,"v",2,1553160124,104.86925,"sub01_Yangmiao-v_80.",1,"redleft-greenright","inc",0,3,0.548256877003873
"365","green","left","hit",1,437.2,"sub01_Yangmiao",365,"v_80",20,"v",2,1553160124,107.28565,"sub01_Yangmiao-v_80.",1,"redleft-greenright","inc",1,3,0.345368206520694
"366","green","left","hit",1,474.2,"sub01_Yangmiao",366,"v_80",20,"v",2,1553160124,109.8271,"sub01_Yangmiao-v_80.",1,"redleft-greenright","inc",1,3,0.716516188547292
"367","red","right","hit",0,457.5,"sub01_Yangmiao",367,"v_80",20,"v",2,1553160124,112.2435,"sub01_Yangmiao-v_80.",1,"redleft-greenright","inc",0,3,0.660083091206153
"368","green","right","hit",1,462.4,"sub01_Yangmiao",368,"v_80",20,"v",2,1553160124,114.7849,"sub01_Yangmiao-v_80.",1,"redleft-greenright","con",1,3,0.147198687631643
"369","red","left","hit",0,413.1,"sub01_Yangmiao",369,"v_80",20,"v",2,1553160124,117.20135,"sub01_Yangmiao-v_80.",1,"redleft-greenright","con",0,3,0.301595125631386
"370","green","left","hit",1,484.1,"sub01_Yangmiao",370,"v_80",20,"v",2,1553160124,119.1178,"sub01_Yangmiao-v_80.",1,"redleft-greenright","inc",1,3,0.340885742526099
"371","green","right","hit",1,573.1,"sub01_Yangmiao",371,"v_80",20,"v",2,1553160124,121.40925,"sub01_Yangmiao-v_80.",1,"redleft-greenright","con",1,3,0.544049822036018
"372","green","left","hit",1,458,"sub01_Yangmiao",372,"v_80",20,"v",2,1553160124,123.95065,"sub01_Yangmiao-v_80.",1,"redleft-greenright","inc",1,3,0.655613408651379
"373","red","right","hit",0,433,"sub01_Yangmiao",373,"v_80",20,"v",2,1553160124,126.3671,"sub01_Yangmiao-v_80.",1,"redleft-greenright","inc",0,3,0.280582899289344
"374","red","right","hit",0,406,"sub01_Yangmiao",374,"v_80",20,"v",2,1553160124,128.9085,"sub01_Yangmiao-v_80.",1,"redleft-greenright","inc",0,3,0.64885836058428
"375","red","right","hit",0,349,"sub01_Yangmiao",375,"v_80",20,"v",2,1553160124,131.3249,"sub01_Yangmiao-v_80.",1,"redleft-greenright","inc",0,3,0.847940519704582
"376","red","right","hit",0,322,"sub01_Yangmiao",376,"v_80",20,"v",2,1553160124,133.86635,"sub01_Yangmiao-v_80.",1,"redleft-greenright","inc",0,3,0.934151684242898
"377","green","left","hit",1,485,"sub01_Yangmiao",377,"v_80",20,"v",2,1553160124,136.0328,"sub01_Yangmiao-v_80.",1,"redleft-greenright","inc",1,3,0.597053641936111
"378","red","right","hit",0,460.1,"sub01_Yangmiao",378,"v_80",20,"v",2,1553160124,138.4492,"sub01_Yangmiao-v_80.",1,"redleft-greenright","inc",0,3,0.841928615285668
"379","green","left","hit",1,547,"sub01_Yangmiao",379,"v_80",20,"v",2,1553160124,140.86565,"sub01_Yangmiao-v_80.",1,"redleft-greenright","inc",1,3,0.736062953712962
"380","green","left","hit",1,481.9,"sub01_Yangmiao",380,"v_80",20,"v",2,1553160124,143.28205,"sub01_Yangmiao-v_80.",1,"redleft-greenright","inc",1,3,0.885703871076368
"381","green","right","hit",1,1094.9,"sub01_Yangmiao",381,"v_80",20,"v",2,1553160124,145.3235,"sub01_Yangmiao-v_80.",1,"redleft-greenright","con",1,3,0.273031905092438
"382","red","right","hit",0,483.8,"sub01_Yangmiao",382,"v_80",20,"v",2,1553160124,147.86495,"sub01_Yangmiao-v_80.",1,"redleft-greenright","inc",0,3,0.35482721830855
"383","red","right","hit",0,578.8,"sub01_Yangmiao",383,"v_80",20,"v",2,1553160124,150.28135,"sub01_Yangmiao-v_80.",1,"redleft-greenright","inc",0,3,0.720612348771875
"384","red","right","hit",0,471.8,"sub01_Yangmiao",384,"v_80",20,"v",2,1553160124,152.82275,"sub01_Yangmiao-v_80.",1,"redleft-greenright","inc",0,3,0.879013092501942
"385","green","left","hit",1,532.8,"sub01_Yangmiao",385,"v_80",20,"v",2,1553160124,155.3642,"sub01_Yangmiao-v_80.",1,"redleft-greenright","inc",1,3,0.624615002371728
"386","red","left","hit",0,601.8,"sub01_Yangmiao",386,"v_80",20,"v",2,1553160124,157.40565,"sub01_Yangmiao-v_80.",1,"redleft-greenright","con",0,3,0.162557900410305
"387","red","right","hit",0,430.8,"sub01_Yangmiao",387,"v_80",20,"v",2,1553160124,159.94705,"sub01_Yangmiao-v_80.",1,"redleft-greenright","inc",0,3,0.735414244374949
"388","green","left","hit",1,451.7,"sub01_Yangmiao",388,"v_80",20,"v",2,1553160124,162.48845,"sub01_Yangmiao-v_80.",1,"redleft-greenright","inc",1,3,0.433823032554448
"389","green","left","hit",1,512.8,"sub01_Yangmiao",389,"v_80",20,"v",2,1553160124,165.0299,"sub01_Yangmiao-v_80.",1,"redleft-greenright","inc",1,3,0.754820944709777
"390","red","left","hit",0,477.7,"sub01_Yangmiao",390,"v_80",20,"v",2,1553160124,167.5713,"sub01_Yangmiao-v_80.",1,"redleft-greenright","con",0,3,0.106173109485926
"391","red","right","hit",0,718.7,"sub01_Yangmiao",391,"v_80",20,"v",2,1553160124,169.86275,"sub01_Yangmiao-v_80.",1,"redleft-greenright","inc",0,3,0.647007916190704
"392","red","right","hit",0,419.6,"sub01_Yangmiao",392,"v_80",20,"v",2,1553160124,172.40415,"sub01_Yangmiao-v_80.",1,"redleft-greenright","inc",0,3,0.847139197442514
"393","green","left","hit",1,424.7,"sub01_Yangmiao",393,"v_80",20,"v",2,1553160124,174.94555,"sub01_Yangmiao-v_80.",1,"redleft-greenright","inc",1,3,0.466481713989973
"394","green","left","hit",1,799.6,"sub01_Yangmiao",394,"v_80",20,"v",2,1553160124,177.362,"sub01_Yangmiao-v_80.",1,"redleft-greenright","inc",1,3,0.768963562869454
"395","red","right","hit",0,404.7,"sub01_Yangmiao",395,"v_80",20,"v",2,1553160124,179.9034,"sub01_Yangmiao-v_80.",1,"redleft-greenright","inc",0,3,0.728154827443986
"396","green","left","hit",1,361.6,"sub01_Yangmiao",396,"v_80",20,"v",2,1553160124,182.4448,"sub01_Yangmiao-v_80.",1,"redleft-greenright","inc",1,3,0.790051275288431
"397","red","right","hit",0,478.7,"sub01_Yangmiao",397,"v_80",20,"v",2,1553160124,184.9862,"sub01_Yangmiao-v_80.",1,"redleft-greenright","inc",0,3,0.777235289339065
"398","green","right","hit",1,587.7,"sub01_Yangmiao",398,"v_80",20,"v",2,1553160124,187.5276,"sub01_Yangmiao-v_80.",1,"redleft-greenright","con",1,3,0.0964667311675841
"399","green","left","hit",1,438.6,"sub01_Yangmiao",399,"v_80",20,"v",2,1553160124,189.6941,"sub01_Yangmiao-v_80.",1,"redleft-greenright","inc",1,3,0.715152807205601
"400","green","left","hit",1,411.6,"sub01_Yangmiao",400,"v_80",20,"v",2,1553160124,192.2355,"sub01_Yangmiao-v_80.",1,"redleft-greenright","inc",1,3,0.876648875445257
"401","green","right","hit",1,360.6,"sub01_Yangmiao",401,"v_80",80,"v",3,1553160124,194.7769,"sub01_Yangmiao-v_80.",1,"redleft-greenright","con",1,3,0.531026594788067
"402","red","left","hit",0,615.6,"sub01_Yangmiao",402,"v_80",80,"v",3,1553160124,197.19335,"sub01_Yangmiao-v_80.",1,"redleft-greenright","con",0,3,0.176130145465339
"403","red","left","hit",0,340.5,"sub01_Yangmiao",403,"v_80",80,"v",3,1553160124,199.73475,"sub01_Yangmiao-v_80.",1,"redleft-greenright","con",0,3,0.597875820437519
"404","green","right","hit",1,399.5,"sub01_Yangmiao",404,"v_80",80,"v",3,1553160124,201.9012,"sub01_Yangmiao-v_80.",1,"redleft-greenright","con",1,3,0.65615882019348
"405","green","right","hit",1,366.5,"sub01_Yangmiao",405,"v_80",80,"v",3,1553160124,204.3176,"sub01_Yangmiao-v_80.",1,"redleft-greenright","con",1,3,0.851101933702477
"406","red","left","hit",0,531.5,"sub01_Yangmiao",406,"v_80",80,"v",3,1553160124,206.859,"sub01_Yangmiao-v_80.",1,"redleft-greenright","con",0,3,0.671384019360277
"407","green","right","hit",1,442.5,"sub01_Yangmiao",407,"v_80",80,"v",3,1553160124,209.27545,"sub01_Yangmiao-v_80.",1,"redleft-greenright","con",1,3,0.815846835859585
"408","green","left","hit",1,423.4,"sub01_Yangmiao",408,"v_80",80,"v",3,1553160124,211.81685,"sub01_Yangmiao-v_80.",1,"redleft-greenright","inc",1,3,0.240593586541292
"409","red","right","hit",0,452.5,"sub01_Yangmiao",409,"v_80",80,"v",3,1553160124,214.35825,"sub01_Yangmiao-v_80.",1,"redleft-greenright","inc",0,3,0.195225029854638
"410","green","right","hit",1,345.5,"sub01_Yangmiao",410,"v_80",80,"v",3,1553160124,216.8997,"sub01_Yangmiao-v_80.",1,"redleft-greenright","con",1,3,0.392804121695788
"411","red","left","hit",0,374.5,"sub01_Yangmiao",411,"v_80",80,"v",3,1553160124,219.4411,"sub01_Yangmiao-v_80.",1,"redleft-greenright","con",0,3,0.431975092493713
"412","green","left","hit",1,493.5,"sub01_Yangmiao",412,"v_80",80,"v",3,1553160124,221.8575,"sub01_Yangmiao-v_80.",1,"redleft-greenright","inc",1,3,0.245979293068118
"413","red","left","hit",0,586.5,"sub01_Yangmiao",413,"v_80",80,"v",3,1553160124,224.39895,"sub01_Yangmiao-v_80.",1,"redleft-greenright","con",0,3,0.368031378353277
"414","red","right","hit",0,553.4,"sub01_Yangmiao",414,"v_80",80,"v",3,1553160124,226.3154,"sub01_Yangmiao-v_80.",1,"redleft-greenright","inc",0,3,0.409581408072219
"415","red","left","hit",0,408.4,"sub01_Yangmiao",415,"v_80",80,"v",3,1553160124,228.73185,"sub01_Yangmiao-v_80.",1,"redleft-greenright","con",0,3,0.664138497305085
"416","red","left","hit",0,357.3,"sub01_Yangmiao",416,"v_80",80,"v",3,1553160124,231.27325,"sub01_Yangmiao-v_80.",1,"redleft-greenright","con",0,3,0.854557478184569
"417","red","left","hit",0,338.6,"sub01_Yangmiao",417,"v_80",80,"v",3,1553160124,233.81465,"sub01_Yangmiao-v_80.",1,"redleft-greenright","con",0,3,0.937017112761366
"418","red","right","hit",0,539.3,"sub01_Yangmiao",418,"v_80",80,"v",3,1553160124,236.1061,"sub01_Yangmiao-v_80.",1,"redleft-greenright","inc",0,3,0.593189716410571
"419","red","left","hit",0,352.4,"sub01_Yangmiao",419,"v_80",80,"v",3,1553160124,238.6475,"sub01_Yangmiao-v_80.",1,"redleft-greenright","con",0,3,0.842828503293682
"420","red","left","hit",0,341.4,"sub01_Yangmiao",420,"v_80",80,"v",3,1553160124,241.1889,"sub01_Yangmiao-v_80.",1,"redleft-greenright","con",0,3,0.931937960572881
"421","green","right","hit",1,458.4,"sub01_Yangmiao",421,"v_80",80,"v",3,1553160124,243.73035,"sub01_Yangmiao-v_80.",1,"redleft-greenright","con",1,3,0.329683261022307
"422","green","right","hit",1,337.3,"sub01_Yangmiao",422,"v_80",80,"v",3,1553160124,246.14675,"sub01_Yangmiao-v_80.",1,"redleft-greenright","con",1,3,0.672823848057105
"423","red","left","hit",0,398.3,"sub01_Yangmiao",423,"v_80",80,"v",3,1553160124,248.68815,"sub01_Yangmiao-v_80.",1,"redleft-greenright","con",0,3,0.747468111109052
"424","red","left","hit",0,387.3,"sub01_Yangmiao",424,"v_80",80,"v",3,1553160124,250.72965,"sub01_Yangmiao-v_80.",1,"redleft-greenright","con",0,3,0.89064279631811
"425","green","right","hit",1,392.2,"sub01_Yangmiao",425,"v_80",80,"v",3,1553160124,253.27105,"sub01_Yangmiao-v_80.",1,"redleft-greenright","con",1,3,0.688453755570097
"426","green","left","hit",1,503.2,"sub01_Yangmiao",426,"v_80",80,"v",3,1553160124,255.68745,"sub01_Yangmiao-v_80.",1,"redleft-greenright","inc",1,3,0.171735353727414
"427","green","right","hit",1,308.2,"sub01_Yangmiao",427,"v_80",80,"v",3,1553160124,258.22885,"sub01_Yangmiao-v_80.",1,"redleft-greenright","con",1,3,0.764767165198345
"428","green","right","hit",1,323.2,"sub01_Yangmiao",428,"v_80",80,"v",3,1553160124,260.6453,"sub01_Yangmiao-v_80.",1,"redleft-greenright","con",1,3,0.89813403312727
"429","green","right","hit",1,336.2,"sub01_Yangmiao",429,"v_80",80,"v",3,1553160124,263.1867,"sub01_Yangmiao-v_80.",1,"redleft-greenright","con",1,3,0.955887641214436
"430","red","left","hit",0,453.2,"sub01_Yangmiao",430,"v_80",80,"v",3,1553160124,265.7281,"sub01_Yangmiao-v_80.",1,"redleft-greenright","con",0,3,0.463486400527736
"431","red","left","hit",0,338.2,"sub01_Yangmiao",431,"v_80",80,"v",3,1553160124,268.26955,"sub01_Yangmiao-v_80.",1,"redleft-greenright","con",0,3,0.767666462903903
"432","green","left","hit",1,473.2,"sub01_Yangmiao",432,"v_80",80,"v",3,1553160124,270.68595,"sub01_Yangmiao-v_80.",1,"redleft-greenright","inc",1,3,0.100610445872536
"433","green","right","hit",1,518.2,"sub01_Yangmiao",433,"v_80",80,"v",3,1553160124,273.22735,"sub01_Yangmiao-v_80.",1,"redleft-greenright","con",1,3,0.683423771179266
"434","green","right","hit",1,531.3,"sub01_Yangmiao",434,"v_80",80,"v",3,1553160124,275.7688,"sub01_Yangmiao-v_80.",1,"redleft-greenright","con",1,3,0.862908833858429
"435","green","right","hit",1,408.1,"sub01_Yangmiao",435,"v_80",80,"v",3,1553160124,277.81025,"sub01_Yangmiao-v_80.",1,"redleft-greenright","con",1,3,0.940633610097433
"436","red","right","hit",0,485.1,"sub01_Yangmiao",436,"v_80",80,"v",3,1553160124,280.35165,"sub01_Yangmiao-v_80.",1,"redleft-greenright","inc",0,3,0.025708208262114
"437","red","left","hit",0,348.1,"sub01_Yangmiao",437,"v_80",80,"v",3,1553160124,282.7681,"sub01_Yangmiao-v_80.",1,"redleft-greenright","con",0,3,0.483122450365086
"438","green","right","hit",1,453.1,"sub01_Yangmiao",438,"v_80",80,"v",3,1553160124,285.0595,"sub01_Yangmiao-v_80.",1,"redleft-greenright","con",1,3,0.482264034386391
"439","red","left","hit",0,516,"sub01_Yangmiao",439,"v_80",80,"v",3,1553160124,287.47595,"sub01_Yangmiao-v_80.",1,"redleft-greenright","con",0,3,0.70028285577203
"440","green","right","hit",1,391,"sub01_Yangmiao",440,"v_80",80,"v",3,1553160124,289.6424,"sub01_Yangmiao-v_80.",1,"redleft-greenright","con",1,3,0.700013270179461
"441","green","left","hit",1,406,"sub01_Yangmiao",441,"v_80",20,"v",4,1553160124,292.0588,"sub01_Yangmiao-v_80.",1,"redleft-greenright","inc",1,3,0.231517905132774
"442","red","right","hit",0,462.9,"sub01_Yangmiao",442,"v_80",20,"v",4,1553160124,294.35025,"sub01_Yangmiao-v_80.",1,"redleft-greenright","inc",0,3,0.231602568505223
"443","red","left","hit",0,579.9,"sub01_Yangmiao",443,"v_80",20,"v",4,1553160124,296.89165,"sub01_Yangmiao-v_80.",1,"redleft-greenright","con",0,3,0.409413100294794
"444","green","right","hit",1,432.9,"sub01_Yangmiao",444,"v_80",20,"v",4,1553160124,299.4331,"sub01_Yangmiao-v_80.",1,"redleft-greenright","con",1,3,0.409383131805165
"445","red","right","hit",0,536,"sub01_Yangmiao",445,"v_80",20,"v",4,1553160124,301.8495,"sub01_Yangmiao-v_80.",1,"redleft-greenright","inc",0,3,0.255762586803579
"446","red","right","hit",0,524.9,"sub01_Yangmiao",446,"v_80",20,"v",4,1553160124,304.3909,"sub01_Yangmiao-v_80.",1,"redleft-greenright","inc",0,3,0.636743767800132
"447","red","right","hit",0,369.9,"sub01_Yangmiao",447,"v_80",20,"v",4,1553160124,306.93235,"sub01_Yangmiao-v_80.",1,"redleft-greenright","inc",0,3,0.842694378330368
"448","green","left","hit",1,366.9,"sub01_Yangmiao",448,"v_80",20,"v",4,1553160124,309.47375,"sub01_Yangmiao-v_80.",1,"redleft-greenright","inc",1,3,0.432437434601615
"449","red","left","hit",0,477.8,"sub01_Yangmiao",449,"v_80",20,"v",4,1553160124,311.89015,"sub01_Yangmiao-v_80.",1,"redleft-greenright","con",0,3,0.245779078987091
"450","green","left","hit",1,458.9,"sub01_Yangmiao",450,"v_80",20,"v",4,1553160124,314.4316,"sub01_Yangmiao-v_80.",1,"redleft-greenright","inc",1,3,0.368129101218881
"451","red","right","hit",0,487.8,"sub01_Yangmiao",451,"v_80",20,"v",4,1553160124,316.47305,"sub01_Yangmiao-v_80.",1,"redleft-greenright","inc",0,3,0.664727504391716
"452","red","right","hit",0,478.7,"sub01_Yangmiao",452,"v_80",20,"v",4,1553160124,318.88945,"sub01_Yangmiao-v_80.",1,"redleft-greenright","inc",0,3,0.8548125436665
"453","red","right","hit",0,395.8,"sub01_Yangmiao",453,"v_80",20,"v",4,1553160124,321.43085,"sub01_Yangmiao-v_80.",1,"redleft-greenright","inc",0,3,0.937127567120149
"454","red","right","hit",0,424.8,"sub01_Yangmiao",454,"v_80",20,"v",4,1553160124,323.9723,"sub01_Yangmiao-v_80.",1,"redleft-greenright","inc",0,3,0.97277352385628
"455","red","right","hit",0,407.7,"sub01_Yangmiao",455,"v_80",20,"v",4,1553160124,326.3887,"sub01_Yangmiao-v_80.",1,"redleft-greenright","inc",0,3,0.988209761110706
"456","red","right","hit",0,326.8,"sub01_Yangmiao",456,"v_80",20,"v",4,1553160124,328.80515,"sub01_Yangmiao-v_80.",1,"redleft-greenright","inc",0,3,0.994894317856897
"457","green","left","hit",1,443.7,"sub01_Yangmiao",457,"v_80",20,"v",4,1553160124,331.34655,"sub01_Yangmiao-v_80.",1,"redleft-greenright","inc",1,3,0.532932919180473
"458","green","left","hit",1,336.7,"sub01_Yangmiao",458,"v_80",20,"v",4,1553160124,333.88795,"sub01_Yangmiao-v_80.",1,"redleft-greenright","inc",1,3,0.79773980183412
"459","green","left","hit",1,347.7,"sub01_Yangmiao",459,"v_80",20,"v",4,1553160124,336.0544,"sub01_Yangmiao-v_80.",1,"redleft-greenright","inc",1,3,0.912412607434631
"460","green","left","hit",1,398.6,"sub01_Yangmiao",460,"v_80",20,"v",4,1553160124,338.22085,"sub01_Yangmiao-v_80.",1,"redleft-greenright","inc",1,3,0.962070879955786
"461","green","left","hit",1,317.6,"sub01_Yangmiao",461,"v_80",20,"v",4,1553160124,340.6373,"sub01_Yangmiao-v_80.",1,"redleft-greenright","inc",1,3,0.983575054523347
"462","green","left","hit",1,316.6,"sub01_Yangmiao",462,"v_80",20,"v",4,1553160124,343.0537,"sub01_Yangmiao-v_80.",1,"redleft-greenright","inc",1,3,0.99288728993458
"463","red","right","hit",0,513.7,"sub01_Yangmiao",463,"v_80",20,"v",4,1553160124,345.5951,"sub01_Yangmiao-v_80.",1,"redleft-greenright","inc",0,3,0.572418847471539
"464","red","right","hit",0,400.6,"sub01_Yangmiao",464,"v_80",20,"v",4,1553160124,348.01155,"sub01_Yangmiao-v_80.",1,"redleft-greenright","inc",0,3,0.814838912452025
"465","green","left","hit",1,397.6,"sub01_Yangmiao",465,"v_80",20,"v",4,1553160124,350.55295,"sub01_Yangmiao-v_80.",1,"redleft-greenright","inc",1,3,0.761349583476148
"466","red","right","hit",0,426.6,"sub01_Yangmiao",466,"v_80",20,"v",4,1553160124,353.09435,"sub01_Yangmiao-v_80.",1,"redleft-greenright","inc",0,3,0.804458431735273
"467","green","right","hit",1,527.5,"sub01_Yangmiao",467,"v_80",20,"v",4,1553160124,355.6358,"sub01_Yangmiao-v_80.",1,"redleft-greenright","con",1,3,0.0846779359348012
"468","green","left","hit",1,620.6,"sub01_Yangmiao",468,"v_80",20,"v",4,1553160124,358.1772,"sub01_Yangmiao-v_80.",1,"redleft-greenright","inc",1,3,0.708615873231862
"469","green","left","hit",1,441.6,"sub01_Yangmiao",469,"v_80",20,"v",4,1553160124,360.7186,"sub01_Yangmiao-v_80.",1,"redleft-greenright","inc",1,3,0.873818100990749
"470","green","left","hit",1,338.5,"sub01_Yangmiao",470,"v_80",20,"v",4,1553160124,363.01005,"sub01_Yangmiao-v_80.",1,"redleft-greenright","inc",1,3,0.945357793459181
"471","green","left","hit",1,359.6,"sub01_Yangmiao",471,"v_80",20,"v",4,1553160124,365.55145,"sub01_Yangmiao-v_80.",1,"redleft-greenright","inc",1,3,0.976337566964096
"472","green","right","hit",1,358.5,"sub01_Yangmiao",472,"v_80",20,"v",4,1553160124,367.9679,"sub01_Yangmiao-v_80.",1,"redleft-greenright","con",1,3,0.514726469260624
"473","green","right","hit",1,315.5,"sub01_Yangmiao",473,"v_80",20,"v",4,1553160124,370.5093,"sub01_Yangmiao-v_80.",1,"redleft-greenright","con",1,3,0.789855623479644
"474","red","right","hit",0,466.5,"sub01_Yangmiao",474,"v_80",20,"v",4,1553160124,372.9257,"sub01_Yangmiao-v_80.",1,"redleft-greenright","inc",0,3,0.091001581965216
"475","green","left","hit",1,431.5,"sub01_Yangmiao",475,"v_80",20,"v",4,1553160124,375.46715,"sub01_Yangmiao-v_80.",1,"redleft-greenright","inc",1,3,0.686801509905579
"476","red","right","hit",0,380.4,"sub01_Yangmiao",476,"v_80",20,"v",4,1553160124,377.5086,"sub01_Yangmiao-v_80.",1,"redleft-greenright","inc",0,3,0.540848012016612
"477","green","left","hit",1,353.4,"sub01_Yangmiao",477,"v_80",20,"v",4,1553160124,380.05,"sub01_Yangmiao-v_80.",1,"redleft-greenright","inc",1,3,0.76424827734258
"478","red","left","hit",0,576.4,"sub01_Yangmiao",478,"v_80",20,"v",4,1553160124,382.4664,"sub01_Yangmiao-v_80.",1,"redleft-greenright","con",0,3,0.102090667702316
"479","red","right","hit",0,471.5,"sub01_Yangmiao",479,"v_80",20,"v",4,1553160124,384.88285,"sub01_Yangmiao-v_80.",1,"redleft-greenright","inc",0,3,0.658395690283628
"480","red","left","hit",0,580.4,"sub01_Yangmiao",480,"v_80",20,"v",4,1553160124,387.42425,"sub01_Yangmiao-v_80.",1,"redleft-greenright","con",0,3,0.544773241325303
"481","green","left","hit",1,554.8,"sub01_Yangmiao",481,"s1_part1",80,"s",1,1553160997,0.2146,"sub01_Yangmiao-s1_part1_120_40",1,"redleft-greenright","inc",1,4,0.197132827812227
"482","green","left","hit",1,381.7,"sub01_Yangmiao",482,"s1_part1",80,"s",1,1553160997,2.38105,"sub01_Yangmiao-s1_part1_120_40",1,"redleft-greenright","inc",1,4,0.608127058980679
"483","red","left","hit",0,530.7,"sub01_Yangmiao",483,"s1_part1",80,"s",1,1553160997,4.92245,"sub01_Yangmiao-s1_part1_120_40",1,"redleft-greenright","con",0,4,0.276835521724864
"484","red","left","hit",0,423.7,"sub01_Yangmiao",484,"s1_part1",80,"s",1,1553160997,7.4639,"sub01_Yangmiao-s1_part1_120_40",1,"redleft-greenright","con",0,4,0.647029296053841
"485","red","left","hit",0,348.7,"sub01_Yangmiao",485,"s1_part1",80,"s",1,1553160997,10.0053,"sub01_Yangmiao-s1_part1_120_40",1,"redleft-greenright","con",0,4,0.750646654177356
"486","red","left","hit",0,311.7,"sub01_Yangmiao",486,"s1_part1",80,"s",1,1553160997,12.17175,"sub01_Yangmiao-s1_part1_120_40",1,"redleft-greenright","con",0,4,0.82384631251881
"487","green","right","hit",1,356.7,"sub01_Yangmiao",487,"s1_part1",80,"s",1,1553160997,14.71315,"sub01_Yangmiao-s1_part1_120_40",1,"redleft-greenright","con",1,4,0.46285470884833
"488","red","left","hit",0,369.6,"sub01_Yangmiao",488,"s1_part1",80,"s",1,1553160997,17.25455,"sub01_Yangmiao-s1_part1_120_40",1,"redleft-greenright","con",0,4,0.772360613935644
"489","green","right","hit",1,310.7,"sub01_Yangmiao",489,"s1_part1",80,"s",1,1553160997,19.796,"sub01_Yangmiao-s1_part1_120_40",1,"redleft-greenright","con",1,4,0.587416141534517
"490","red","left","hit",0,323.6,"sub01_Yangmiao",490,"s1_part1",80,"s",1,1553160997,22.3374,"sub01_Yangmiao-s1_part1_120_40",1,"redleft-greenright","con",0,4,0.745983281987062
"491","green","left","incorrect",0,344.6,"sub01_Yangmiao",491,"s1_part1",80,"s",1,1553160997,24.37885,"sub01_Yangmiao-s1_part1_120_40",1,"redleft-greenright","inc",1,4,0.8205519103334
"492","green","right","hit",1,727.5,"sub01_Yangmiao",492,"s1_part1",80,"s",1,1553160997,26.7953,"sub01_Yangmiao-s1_part1_120_40",1,"redleft-greenright","con",1,4,0.609675870078643
"493","red","left","hit",0,462.5,"sub01_Yangmiao",493,"s1_part1",80,"s",1,1553160997,29.2117,"sub01_Yangmiao-s1_part1_120_40",1,"redleft-greenright","con",0,4,0.427844373224911
"494","red","left","hit",0,467.5,"sub01_Yangmiao",494,"s1_part1",80,"s",1,1553160997,31.7531,"sub01_Yangmiao-s1_part1_120_40",1,"redleft-greenright","con",0,4,0.59580520912188
"495","green","right","hit",1,386.5,"sub01_Yangmiao",495,"s1_part1",80,"s",1,1553160997,34.16955,"sub01_Yangmiao-s1_part1_120_40",1,"redleft-greenright","con",1,4,0.617946371390876
"496","green","right","hit",1,425.4,"sub01_Yangmiao",496,"s1_part1",80,"s",1,1553160997,36.086,"sub01_Yangmiao-s1_part1_120_40",1,"redleft-greenright","con",1,4,0.730101253411959
"497","red","left","hit",0,392.5,"sub01_Yangmiao",497,"s1_part1",80,"s",1,1553160997,38.50245,"sub01_Yangmiao-s1_part1_120_40",1,"redleft-greenright","con",0,4,0.612792790141355
"498","red","right","hit",0,495.4,"sub01_Yangmiao",498,"s1_part1",80,"s",1,1553160997,40.91885,"sub01_Yangmiao-s1_part1_120_40",1,"redleft-greenright","inc",0,4,0.275667180396535
"499","green","right","hit",1,494.5,"sub01_Yangmiao",499,"s1_part1",80,"s",1,1553160997,43.3353,"sub01_Yangmiao-s1_part1_120_40",1,"redleft-greenright","con",1,4,0.353540961852208
"500","green","right","hit",1,427.3,"sub01_Yangmiao",500,"s1_part1",80,"s",1,1553160997,45.37675,"sub01_Yangmiao-s1_part1_120_40",1,"redleft-greenright","con",1,4,0.543314155261937
"501","green","right","hit",1,824.4,"sub01_Yangmiao",501,"s1_part1",80,"s",1,1553160997,47.91815,"sub01_Yangmiao-s1_part1_120_40",1,"redleft-greenright","con",1,4,0.677377918047706
"502","green","left","hit",1,521.3,"sub01_Yangmiao",502,"s1_part1",80,"s",1,1553160997,50.2096,"sub01_Yangmiao-s1_part1_120_40",1,"redleft-greenright","inc",1,4,0.437358317177777
"503","green","right","hit",1,352.3,"sub01_Yangmiao",503,"s1_part1",80,"s",1,1553160997,52.626,"sub01_Yangmiao-s1_part1_120_40",1,"redleft-greenright","con",1,4,0.697321417279908
"504","red","left","hit",0,397.3,"sub01_Yangmiao",504,"s1_part1",80,"s",1,1553160997,55.16745,"sub01_Yangmiao-s1_part1_120_40",1,"redleft-greenright","con",0,4,0.425646258415226
"505","red","left","hit",0,364.3,"sub01_Yangmiao",505,"s1_part1",80,"s",1,1553160997,57.58385,"sub01_Yangmiao-s1_part1_120_40",1,"redleft-greenright","con",0,4,0.594252368401193
"506","red","left","hit",0,393.3,"sub01_Yangmiao",506,"s1_part1",80,"s",1,1553160997,60.12525,"sub01_Yangmiao-s1_part1_120_40",1,"redleft-greenright","con",0,4,0.713362813492281
"507","green","right","hit",1,414.2,"sub01_Yangmiao",507,"s1_part1",80,"s",1,1553160997,62.6667,"sub01_Yangmiao-s1_part1_120_40",1,"redleft-greenright","con",1,4,0.609152836655832
"508","red","right","hit",0,571.2,"sub01_Yangmiao",508,"s1_part1",80,"s",1,1553160997,65.2081,"sub01_Yangmiao-s1_part1_120_40",1,"redleft-greenright","inc",0,4,0.276110869246599
"509","green","right","hit",1,368.3,"sub01_Yangmiao",509,"s1_part1",80,"s",1,1553160997,67.7495,"sub01_Yangmiao-s1_part1_120_40",1,"redleft-greenright","con",1,4,0.353324400930806
"510","green","right","hit",1,415.2,"sub01_Yangmiao",510,"s1_part1",80,"s",1,1553160997,70.16595,"sub01_Yangmiao-s1_part1_120_40",1,"redleft-greenright","con",1,4,0.543161167521815
"511","red","left","hit",0,468.2,"sub01_Yangmiao",511,"s1_part1",80,"s",1,1553160997,72.70735,"sub01_Yangmiao-s1_part1_120_40",1,"redleft-greenright","con",0,4,0.582294099072504
"512","red","right","hit",0,473.3,"sub01_Yangmiao",512,"s1_part1",80,"s",1,1553160997,75.24875,"sub01_Yangmiao-s1_part1_120_40",1,"redleft-greenright","inc",0,4,0.37144097459019
"513","green","right","hit",1,382.2,"sub01_Yangmiao",513,"s1_part1",80,"s",1,1553160997,77.79015,"sub01_Yangmiao-s1_part1_120_40",1,"redleft-greenright","con",1,4,0.444040523138895
"514","red","left","hit",0,355.2,"sub01_Yangmiao",514,"s1_part1",80,"s",1,1553160997,80.3316,"sub01_Yangmiao-s1_part1_120_40",1,"redleft-greenright","con",0,4,0.60777279840284
"515","green","right","hit",1,376.3,"sub01_Yangmiao",515,"s1_part1",80,"s",1,1553160997,82.873,"sub01_Yangmiao-s1_part1_120_40",1,"redleft-greenright","con",1,4,0.577777192555348
"516","red","left","hit",0,431.2,"sub01_Yangmiao",516,"s1_part1",80,"s",1,1553160997,85.2894,"sub01_Yangmiao-s1_part1_120_40",1,"redleft-greenright","con",0,4,0.661661080589951
"517","red","left","hit",0,484.2,"sub01_Yangmiao",517,"s1_part1",80,"s",1,1553160997,87.83085,"sub01_Yangmiao-s1_part1_120_40",1,"redleft-greenright","con",0,4,0.760983161962975
"518","green","right","hit",1,451.3,"sub01_Yangmiao",518,"s1_part1",80,"s",1,1553160997,90.24725,"sub01_Yangmiao-s1_part1_120_40",1,"redleft-greenright","con",1,4,0.606094562246307
"519","red","right","hit",0,506.4,"sub01_Yangmiao",519,"s1_part1",80,"s",1,1553160997,92.6637,"sub01_Yangmiao-s1_part1_120_40",1,"redleft-greenright","inc",0,4,0.278271362873784
"520","green","right","hit",1,515.1,"sub01_Yangmiao",520,"s1_part1",80,"s",1,1553160997,94.9551,"sub01_Yangmiao-s1_part1_120_40",1,"redleft-greenright","con",1,4,0.352269881551926
"521","red","left","hit",0,336.1,"sub01_Yangmiao",521,"s1_part1",80,"s",2,1553160997,97.4965,"sub01_Yangmiao-s1_part1_120_40",1,"redleft-greenright","con",0,4,0.626306552975934
"522","red","right","hit",0,429.1,"sub01_Yangmiao",522,"s1_part1",80,"s",2,1553160997,100.03795,"sub01_Yangmiao-s1_part1_120_40",1,"redleft-greenright","inc",0,4,0.469239061334335
"523","green","right","hit",1,388.1,"sub01_Yangmiao",523,"s1_part1",80,"s",2,1553160997,102.45435,"sub01_Yangmiao-s1_part1_120_40",1,"redleft-greenright","con",1,4,0.374951842769474
"524","green","right","hit",1,561.1,"sub01_Yangmiao",524,"s1_part1",80,"s",2,1553160997,104.99575,"sub01_Yangmiao-s1_part1_120_40",1,"redleft-greenright","con",1,4,0.558439701756427
"525","red","right","hit",0,546,"sub01_Yangmiao",525,"s1_part1",80,"s",2,1553160997,107.2872,"sub01_Yangmiao-s1_part1_120_40",1,"redleft-greenright","inc",0,4,0.31193675995919
"526","red","left","hit",0,457.2,"sub01_Yangmiao",526,"s1_part1",80,"s",2,1553160997,109.70365,"sub01_Yangmiao-s1_part1_120_40",1,"redleft-greenright","con",0,4,0.565282410978425
"527","red","left","hit",0,420.1,"sub01_Yangmiao",527,"s1_part1",80,"s",2,1553160997,111.8701,"sub01_Yangmiao-s1_part1_120_40",1,"redleft-greenright","con",0,4,0.692897217535035
"528","green","right","hit",1,587.1,"sub01_Yangmiao",528,"s1_part1",80,"s",2,1553160997,114.2865,"sub01_Yangmiao-s1_part1_120_40",1,"redleft-greenright","con",1,4,0.41366083014766
"529","green","left","hit",1,513.9,"sub01_Yangmiao",529,"s1_part1",80,"s",2,1553160997,116.70295,"sub01_Yangmiao-s1_part1_120_40",1,"redleft-greenright","inc",1,4,0.294727681295971
"530","green","right","hit",1,407,"sub01_Yangmiao",530,"s1_part1",80,"s",2,1553160997,119.24435,"sub01_Yangmiao-s1_part1_120_40",1,"redleft-greenright","con",1,4,0.562212962709434
"531","red","left","hit",0,380,"sub01_Yangmiao",531,"s1_part1",80,"s",2,1553160997,121.78575,"sub01_Yangmiao-s1_part1_120_40",1,"redleft-greenright","con",0,4,0.387038589728833
"532","green","left","hit",1,465,"sub01_Yangmiao",532,"s1_part1",80,"s",2,1553160997,124.32715,"sub01_Yangmiao-s1_part1_120_40",1,"redleft-greenright","inc",1,4,0.433021712007567
"533","red","left","hit",0,496,"sub01_Yangmiao",533,"s1_part1",80,"s",2,1553160997,126.7436,"sub01_Yangmiao-s1_part1_120_40",1,"redleft-greenright","con",0,4,0.400537301082282
"534","red","left","hit",0,486.9,"sub01_Yangmiao",534,"s1_part1",80,"s",2,1553160997,129.16,"sub01_Yangmiao-s1_part1_120_40",1,"redleft-greenright","con",0,4,0.576514345242074
"535","green","right","hit",1,339.9,"sub01_Yangmiao",535,"s1_part1",80,"s",2,1553160997,131.70145,"sub01_Yangmiao-s1_part1_120_40",1,"redleft-greenright","con",1,4,0.552757864668069
"536","green","right","hit",1,432.9,"sub01_Yangmiao",536,"s1_part1",80,"s",2,1553160997,134.24285,"sub01_Yangmiao-s1_part1_120_40",1,"redleft-greenright","con",1,4,0.684049351430333
"537","green","right","hit",1,382.2,"sub01_Yangmiao",537,"s1_part1",80,"s",2,1553160997,136.78425,"sub01_Yangmiao-s1_part1_120_40",1,"redleft-greenright","con",1,4,0.776799177793242
"538","green","right","hit",1,412.9,"sub01_Yangmiao",538,"s1_part1",80,"s",2,1553160997,139.20065,"sub01_Yangmiao-s1_part1_120_40",1,"redleft-greenright","con",1,4,0.842321554776654
"539","red","left","hit",0,409.9,"sub01_Yangmiao",539,"s1_part1",80,"s",2,1553160997,141.7421,"sub01_Yangmiao-s1_part1_120_40",1,"redleft-greenright","con",0,4,0.555552501808654
"540","red","left","hit",0,440.8,"sub01_Yangmiao",540,"s1_part1",80,"s",2,1553160997,143.65855,"sub01_Yangmiao-s1_part1_120_40",1,"redleft-greenright","con",0,4,0.686023600606184
"541","red","left","hit",0,421.8,"sub01_Yangmiao",541,"s1_part1",80,"s",2,1553160997,146.2,"sub01_Yangmiao-s1_part1_120_40",1,"redleft-greenright","con",0,4,0.77819387041782
"542","red","left","hit",0,354.7,"sub01_Yangmiao",542,"s1_part1",80,"s",2,1553160997,148.7414,"sub01_Yangmiao-s1_part1_120_40",1,"redleft-greenright","con",0,4,0.84330682428612
"543","red","left","hit",0,345.8,"sub01_Yangmiao",543,"s1_part1",80,"s",2,1553160997,151.1578,"sub01_Yangmiao-s1_part1_120_40",1,"redleft-greenright","con",0,4,0.889305352554722
"544","green","right","hit",1,470.8,"sub01_Yangmiao",544,"s1_part1",80,"s",2,1553160997,153.6992,"sub01_Yangmiao-s1_part1_120_40",1,"redleft-greenright","con",1,4,0.577956402424163
"545","red","left","hit",0,389.8,"sub01_Yangmiao",545,"s1_part1",80,"s",2,1553160997,156.11565,"sub01_Yangmiao-s1_part1_120_40",1,"redleft-greenright","con",0,4,0.805896816717736
"546","green","left","hit",1,458.8,"sub01_Yangmiao",546,"s1_part1",80,"s",2,1553160997,158.65705,"sub01_Yangmiao-s1_part1_120_40",1,"redleft-greenright","inc",1,4,0.137122649684947
"547","red","right","hit",0,463.7,"sub01_Yangmiao",547,"s1_part1",80,"s",2,1553160997,160.6985,"sub01_Yangmiao-s1_part1_120_40",1,"redleft-greenright","inc",0,4,0.393838853138689
"548","green","right","hit",1,484.6,"sub01_Yangmiao",548,"s1_part1",80,"s",2,1553160997,162.74,"sub01_Yangmiao-s1_part1_120_40",1,"redleft-greenright","con",1,4,0.428217720019661
"549","green","right","hit",1,503.6,"sub01_Yangmiao",549,"s1_part1",80,"s",2,1553160997,164.90645,"sub01_Yangmiao-s1_part1_120_40",1,"redleft-greenright","con",1,4,0.596068956994954
"550","green","right","hit",1,844.5,"sub01_Yangmiao",550,"s1_part1",80,"s",2,1553160997,167.44785,"sub01_Yangmiao-s1_part1_120_40",1,"redleft-greenright","con",1,4,0.714646128052876
"551","red","left","hit",0,371.6,"sub01_Yangmiao",551,"s1_part1",80,"s",2,1553160997,169.86425,"sub01_Yangmiao-s1_part1_120_40",1,"redleft-greenright","con",0,4,0.478192863918888
"552","red","right","hit",0,416.6,"sub01_Yangmiao",552,"s1_part1",80,"s",2,1553160997,172.4057,"sub01_Yangmiao-s1_part1_120_40",1,"redleft-greenright","inc",0,4,0.283585203908345
"553","red","left","hit",0,377.5,"sub01_Yangmiao",553,"s1_part1",80,"s",2,1553160997,174.6971,"sub01_Yangmiao-s1_part1_120_40",1,"redleft-greenright","con",0,4,0.59527423842178
"554","green","right","hit",1,334.5,"sub01_Yangmiao",554,"s1_part1",80,"s",2,1553160997,177.23855,"sub01_Yangmiao-s1_part1_120_40",1,"redleft-greenright","con",1,4,0.390982718203466
"555","green","left","hit",1,491.5,"sub01_Yangmiao",555,"s1_part1",80,"s",2,1553160997,179.77995,"sub01_Yangmiao-s1_part1_120_40",1,"redleft-greenright","inc",1,4,0.344742225076907
"556","green","right","hit",1,352.5,"sub01_Yangmiao",556,"s1_part1",80,"s",2,1553160997,182.32135,"sub01_Yangmiao-s1_part1_120_40",1,"redleft-greenright","con",1,4,0.550594433619209
"557","green","right","hit",1,407.5,"sub01_Yangmiao",557,"s1_part1",80,"s",2,1553160997,184.7378,"sub01_Yangmiao-s1_part1_120_40",1,"redleft-greenright","con",1,4,0.682521012776562
"558","red","left","hit",0,380.5,"sub01_Yangmiao",558,"s1_part1",80,"s",2,1553160997,187.2792,"sub01_Yangmiao-s1_part1_120_40",1,"redleft-greenright","con",0,4,0.480488524358098
"559","green","right","hit",1,403.5,"sub01_Yangmiao",559,"s1_part1",80,"s",2,1553160997,189.6956,"sub01_Yangmiao-s1_part1_120_40",1,"redleft-greenright","con",1,4,0.699956345437421
"560","red","left","hit",0,472.5,"sub01_Yangmiao",560,"s1_part1",80,"s",2,1553160997,192.23705,"sub01_Yangmiao-s1_part1_120_40",1,"redleft-greenright","con",0,4,0.596450359152636
"561","red","left","hit",0,437.4,"sub01_Yangmiao",561,"s1_part1",80,"s",3,1553160997,194.77845,"sub01_Yangmiao-s1_part1_120_40",1,"redleft-greenright","con",0,4,0.71491556657301
"562","green","left","hit",1,516.4,"sub01_Yangmiao",562,"s1_part1",80,"s",3,1553160997,197.19485,"sub01_Yangmiao-s1_part1_120_40",1,"redleft-greenright","inc",1,4,0.20139563006854
"563","green","right","hit",1,353.4,"sub01_Yangmiao",563,"s1_part1",80,"s",3,1553160997,199.7363,"sub01_Yangmiao-s1_part1_120_40",1,"redleft-greenright","con",1,4,0.609862820498764
"564","green","left","hit",1,478.5,"sub01_Yangmiao",564,"s1_part1",80,"s",3,1553160997,202.2777,"sub01_Yangmiao-s1_part1_120_40",1,"redleft-greenright","inc",1,4,0.579924448378763
"565","green","right","hit",1,339.4,"sub01_Yangmiao",565,"s1_part1",80,"s",3,1553160997,204.8191,"sub01_Yangmiao-s1_part1_120_40",1,"redleft-greenright","con",1,4,0.66273184797043
"566","red","left","hit",0,530.4,"sub01_Yangmiao",566,"s1_part1",80,"s",3,1553160997,207.2355,"sub01_Yangmiao-s1_part1_120_40",1,"redleft-greenright","con",0,4,0.352606282833677
"567","red","left","hit",0,479.4,"sub01_Yangmiao",567,"s1_part1",80,"s",3,1553160997,209.77695,"sub01_Yangmiao-s1_part1_120_40",1,"redleft-greenright","con",0,4,0.542653858704928
"568","green","right","hit",1,334.5,"sub01_Yangmiao",568,"s1_part1",80,"s",3,1553160997,212.19335,"sub01_Yangmiao-s1_part1_120_40",1,"redleft-greenright","con",1,4,0.637659079652614
"569","green","right","hit",1,363.4,"sub01_Yangmiao",569,"s1_part1",80,"s",3,1553160997,214.73475,"sub01_Yangmiao-s1_part1_120_40",1,"redleft-greenright","con",1,4,0.744027139343386
"570","green","right","hit",1,384.4,"sub01_Yangmiao",570,"s1_part1",80,"s",3,1553160997,217.2762,"sub01_Yangmiao-s1_part1_120_40",1,"redleft-greenright","con",1,4,0.819170008924434
"571","red","left","hit",0,445.4,"sub01_Yangmiao",571,"s1_part1",80,"s",3,1553160997,219.8176,"sub01_Yangmiao-s1_part1_120_40",1,"redleft-greenright","con",0,4,0.567477519133098
"572","green","right","hit",1,356.4,"sub01_Yangmiao",572,"s1_part1",80,"s",3,1553160997,222.234,"sub01_Yangmiao-s1_part1_120_40",1,"redleft-greenright","con",1,4,0.769964833833681
"573","red","left","hit",0,411.3,"sub01_Yangmiao",573,"s1_part1",80,"s",3,1553160997,224.1505,"sub01_Yangmiao-s1_part1_120_40",1,"redleft-greenright","con",0,4,0.641016863137178
"574","red","left","hit",0,368.3,"sub01_Yangmiao",574,"s1_part1",80,"s",3,1553160997,226.6919,"sub01_Yangmiao-s1_part1_120_40",1,"redleft-greenright","con",0,4,0.746399218773955
"575","red","left","hit",0,319.3,"sub01_Yangmiao",575,"s1_part1",80,"s",3,1553160997,229.10835,"sub01_Yangmiao-s1_part1_120_40",1,"redleft-greenright","con",0,4,0.820845745567608
"576","green","right","hit",1,402.4,"sub01_Yangmiao",576,"s1_part1",80,"s",3,1553160997,231.2748,"sub01_Yangmiao-s1_part1_120_40",1,"redleft-greenright","con",1,4,0.628726672815837
"577","red","left","hit",0,343.2,"sub01_Yangmiao",577,"s1_part1",80,"s",3,1553160997,233.8162,"sub01_Yangmiao-s1_part1_120_40",1,"redleft-greenright","con",0,4,0.770823353051867
"578","green","right","hit",1,350.2,"sub01_Yangmiao",578,"s1_part1",80,"s",3,1553160997,236.2326,"sub01_Yangmiao-s1_part1_120_40",1,"redleft-greenright","con",1,4,0.672396242318556
"579","red","right","incorrect",1,355.2,"sub01_Yangmiao",579,"s1_part1",80,"s",3,1553160997,238.77405,"sub01_Yangmiao-s1_part1_120_40",1,"redleft-greenright","inc",0,4,0.768566931564951
"580","green","right","hit",1,552.2,"sub01_Yangmiao",580,"s1_part1",80,"s",3,1553160997,240.8155,"sub01_Yangmiao-s1_part1_120_40",1,"redleft-greenright","con",1,4,0.375131272364581
"581","red","left","hit",0,357.2,"sub01_Yangmiao",581,"s1_part1",80,"s",3,1553160997,243.3569,"sub01_Yangmiao-s1_part1_120_40",1,"redleft-greenright","con",0,4,0.628958001617733
"582","red","right","hit",0,458.1,"sub01_Yangmiao",582,"s1_part1",80,"s",3,1553160997,245.8983,"sub01_Yangmiao-s1_part1_120_40",1,"redleft-greenright","inc",0,4,0.457526634177547
"583","red","left","hit",0,433.2,"sub01_Yangmiao",583,"s1_part1",80,"s",3,1553160997,248.31475,"sub01_Yangmiao-s1_part1_120_40",1,"redleft-greenright","con",0,4,0.672514757493931
"584","green","right","hit",1,514.1,"sub01_Yangmiao",584,"s1_part1",80,"s",3,1553160997,250.60615,"sub01_Yangmiao-s1_part1_120_40",1,"redleft-greenright","con",1,4,0.415313556189426
"585","red","left","hit",0,313.1,"sub01_Yangmiao",585,"s1_part1",80,"s",3,1553160997,253.0226,"sub01_Yangmiao-s1_part1_120_40",1,"redleft-greenright","con",0,4,0.694829905971404
"586","red","left","hit",0,294,"sub01_Yangmiao",586,"s1_part1",80,"s",3,1553160997,255.564,"sub01_Yangmiao-s1_part1_120_40",1,"redleft-greenright","con",0,4,0.784415014786472
"587","green","right","hit",1,523.1,"sub01_Yangmiao",587,"s1_part1",80,"s",3,1553160997,258.1054,"sub01_Yangmiao-s1_part1_120_40",1,"redleft-greenright","con",1,4,0.545731934054731
"588","green","right","hit",1,532,"sub01_Yangmiao",588,"s1_part1",80,"s",3,1553160997,260.39685,"sub01_Yangmiao-s1_part1_120_40",1,"redleft-greenright","con",1,4,0.679085938641773
"589","red","left","hit",0,489,"sub01_Yangmiao",589,"s1_part1",80,"s",3,1553160997,262.93825,"sub01_Yangmiao-s1_part1_120_40",1,"redleft-greenright","con",0,4,0.682869909103375
"590","green","right","hit",1,414,"sub01_Yangmiao",590,"s1_part1",80,"s",3,1553160997,265.4797,"sub01_Yangmiao-s1_part1_120_40",1,"redleft-greenright","con",1,4,0.698196476323964
"591","green","right","hit",1,459,"sub01_Yangmiao",591,"s1_part1",80,"s",3,1553160997,268.0211,"sub01_Yangmiao-s1_part1_120_40",1,"redleft-greenright","con",1,4,0.786793301630034
"592","green","right","hit",1,446,"sub01_Yangmiao",592,"s1_part1",80,"s",3,1553160997,270.18755,"sub01_Yangmiao-s1_part1_120_40",1,"redleft-greenright","con",1,4,0.849381824055121
"593","red","right","hit",0,476.9,"sub01_Yangmiao",593,"s1_part1",80,"s",3,1553160997,272.60395,"sub01_Yangmiao-s1_part1_120_40",1,"redleft-greenright","inc",0,4,0.106403012186779
"594","green","left","hit",1,522,"sub01_Yangmiao",594,"s1_part1",80,"s",3,1553160997,275.1454,"sub01_Yangmiao-s1_part1_120_40",1,"redleft-greenright","inc",1,4,0.423664527859894
"595","red","left","hit",0,566.9,"sub01_Yangmiao",595,"s1_part1",80,"s",3,1553160997,277.18685,"sub01_Yangmiao-s1_part1_120_40",1,"redleft-greenright","con",0,4,0.407147609384403
"596","green","right","hit",1,355.9,"sub01_Yangmiao",596,"s1_part1",80,"s",3,1553160997,279.72825,"sub01_Yangmiao-s1_part1_120_40",1,"redleft-greenright","con",1,4,0.466422696452965
