stim_color,stim_loc,Type,Response,RT,Subject,Trial,logfile_name,prop,condition,block,time_stamp,onset,factors,Subject_num,rule,congruency,correct_action,run,if_over_CCC
1,0,1,1,1105.2,sub08_Luoluo,1,s2_part1,20,s,1,1553682990,0.2154,sub08_Luoluo-s2_part1_120_40,8,redleft-greenright,0,1,1,false
0,1,1,0,588.3,sub08_Luoluo,2,s2_part1,20,s,1,1553682990,2.3819,sub08_Luoluo-s2_part1_120_40,8,redleft-greenright,0,0,1,false
0,1,1,0,1059.1,sub08_Luoluo,3,s2_part1,20,s,1,1553682990,4.79835,sub08_Luoluo-s2_part1_120_40,8,redleft-greenright,0,0,1,true
1,1,1,1,752.2,sub08_Luoluo,4,s2_part1,20,s,1,1553682990,7.3398,sub08_Luoluo-s2_part1_120_40,8,redleft-greenright,1,1,1,true
1,0,1,1,629.1,sub08_Luoluo,5,s2_part1,20,s,1,1553682990,9.88125,sub08_Luoluo-s2_part1_120_40,8,redleft-greenright,0,1,1,true
1,0,1,1,682.2,sub08_Luoluo,6,s2_part1,20,s,1,1553682990,12.4227,sub08_Luoluo-s2_part1_120_40,8,redleft-greenright,0,1,1,true
1,0,1,1,753.2,sub08_Luoluo,7,s2_part1,20,s,1,1553682990,14.83915,sub08_Luoluo-s2_part1_120_40,8,redleft-greenright,0,1,1,true
0,1,1,0,736.1,sub08_Luoluo,8,s2_part1,20,s,1,1553682990,17.2556,sub08_Luoluo-s2_part1_120_40,8,redleft-greenright,0,0,1,true
1,0,1,1,629.1,sub08_Luoluo,9,s2_part1,20,s,1,1553682990,19.79705,sub08_Luoluo-s2_part1_120_40,8,redleft-greenright,0,1,1,true
1,1,1,1,706,sub08_Luoluo,10,s2_part1,20,s,1,1553682990,22.3385,sub08_Luoluo-s2_part1_120_40,8,redleft-greenright,1,1,1,false
0,0,1,0,879.1,sub08_Luoluo,11,s2_part1,20,s,1,1553682990,24.87995,sub08_Luoluo-s2_part1_120_40,8,redleft-greenright,1,0,1,true
0,0,1,0,638.1,sub08_Luoluo,12,s2_part1,20,s,1,1553682990,27.2964,sub08_Luoluo-s2_part1_120_40,8,redleft-greenright,1,0,1,false
0,1,1,0,711.1,sub08_Luoluo,13,s2_part1,20,s,1,1553682990,29.5879,sub08_Luoluo-s2_part1_120_40,8,redleft-greenright,0,0,1,true
1,0,1,1,679.9,sub08_Luoluo,14,s2_part1,20,s,1,1553682990,31.87935,sub08_Luoluo-s2_part1_120_40,8,redleft-greenright,0,1,1,true
0,1,1,0,1005.1,sub08_Luoluo,15,s2_part1,20,s,1,1553682990,34.4208,sub08_Luoluo-s2_part1_120_40,8,redleft-greenright,0,0,1,false
0,1,1,0,898,sub08_Luoluo,16,s2_part1,20,s,1,1553682990,36.96225,sub08_Luoluo-s2_part1_120_40,8,redleft-greenright,0,0,1,true
0,1,1,0,625,sub08_Luoluo,17,s2_part1,20,s,1,1553682990,39.3787,sub08_Luoluo-s2_part1_120_40,8,redleft-greenright,0,0,1,true
1,0,1,1,701.9,sub08_Luoluo,18,s2_part1,20,s,1,1553682990,41.92015,sub08_Luoluo-s2_part1_120_40,8,redleft-greenright,0,1,1,false
1,0,1,1,771.1,sub08_Luoluo,19,s2_part1,20,s,1,1553682990,44.4616,sub08_Luoluo-s2_part1_120_40,8,redleft-greenright,0,1,1,true
0,1,1,0,680,sub08_Luoluo,20,s2_part1,20,s,1,1553682990,47.00305,sub08_Luoluo-s2_part1_120_40,8,redleft-greenright,0,0,1,true
1,0,0,0,1068.9,sub08_Luoluo,21,s2_part1,20,s,1,1553682990,49.5445,sub08_Luoluo-s2_part1_120_40,8,redleft-greenright,0,1,1,true
0,1,0,1,674,sub08_Luoluo,22,s2_part1,20,s,1,1553682990,52.08595,sub08_Luoluo-s2_part1_120_40,8,redleft-greenright,0,0,1,true
1,0,0,0,854.9,sub08_Luoluo,23,s2_part1,20,s,1,1553682990,54.6274,sub08_Luoluo-s2_part1_120_40,8,redleft-greenright,0,1,1,true
1,0,0,0,721.9,sub08_Luoluo,24,s2_part1,20,s,1,1553682990,56.7939,sub08_Luoluo-s2_part1_120_40,8,redleft-greenright,0,1,1,false
1,0,0,0,782,sub08_Luoluo,26,s2_part1,20,s,1,1553682990,61.7518,sub08_Luoluo-s2_part1_120_40,8,redleft-greenright,0,1,1,true
1,0,0,0,739,sub08_Luoluo,27,s2_part1,20,s,1,1553682990,64.29325,sub08_Luoluo-s2_part1_120_40,8,redleft-greenright,0,1,1,true
1,0,0,0,610.1,sub08_Luoluo,28,s2_part1,20,s,1,1553682990,66.7097,sub08_Luoluo-s2_part1_120_40,8,redleft-greenright,0,1,1,true
0,1,0,1,766.9,sub08_Luoluo,29,s2_part1,20,s,1,1553682990,69.25115,sub08_Luoluo-s2_part1_120_40,8,redleft-greenright,0,0,1,false
0,1,0,1,939.8,sub08_Luoluo,30,s2_part1,20,s,1,1553682990,71.7926,sub08_Luoluo-s2_part1_120_40,8,redleft-greenright,0,0,1,true
0,0,0,1,778.9,sub08_Luoluo,31,s2_part1,20,s,1,1553682990,74.20905,sub08_Luoluo-s2_part1_120_40,8,redleft-greenright,1,0,1,true
0,0,0,1,753.8,sub08_Luoluo,32,s2_part1,20,s,1,1553682990,76.62555,sub08_Luoluo-s2_part1_120_40,8,redleft-greenright,1,0,1,true
1,1,0,0,686.7,sub08_Luoluo,33,s2_part1,20,s,1,1553682990,79.16695,sub08_Luoluo-s2_part1_120_40,8,redleft-greenright,1,1,1,true
0,1,0,1,787.7,sub08_Luoluo,34,s2_part1,20,s,1,1553682990,81.7084,sub08_Luoluo-s2_part1_120_40,8,redleft-greenright,0,0,1,true
0,1,0,1,712.7,sub08_Luoluo,35,s2_part1,20,s,1,1553682990,83.7499,sub08_Luoluo-s2_part1_120_40,8,redleft-greenright,0,0,1,true
0,1,0,1,911.6,sub08_Luoluo,36,s2_part1,20,s,1,1553682990,85.6664,sub08_Luoluo-s2_part1_120_40,8,redleft-greenright,0,0,1,true
1,0,0,0,596.6,sub08_Luoluo,37,s2_part1,20,s,1,1553682990,87.7079,sub08_Luoluo-s2_part1_120_40,8,redleft-greenright,0,1,1,false
1,1,0,0,867.6,sub08_Luoluo,38,s2_part1,20,s,1,1553682990,90.12435,sub08_Luoluo-s2_part1_120_40,8,redleft-greenright,1,1,1,true
1,0,0,0,720.5,sub08_Luoluo,39,s2_part1,20,s,1,1553682990,92.6658,sub08_Luoluo-s2_part1_120_40,8,redleft-greenright,0,1,1,true
0,1,0,1,607.7,sub08_Luoluo,40,s2_part1,20,s,1,1553682990,95.08225,sub08_Luoluo-s2_part1_120_40,8,redleft-greenright,0,0,1,false
1,0,0,0,782.6,sub08_Luoluo,41,s2_part1,20,s,2,1553682990,97.49875,sub08_Luoluo-s2_part1_120_40,8,redleft-greenright,0,1,1,true
1,0,0,0,715.6,sub08_Luoluo,42,s2_part1,20,s,2,1553682990,100.0402,sub08_Luoluo-s2_part1_120_40,8,redleft-greenright,0,1,1,true
1,0,0,0,624.7,sub08_Luoluo,43,s2_part1,20,s,2,1553682990,102.58165,sub08_Luoluo-s2_part1_120_40,8,redleft-greenright,0,1,1,true
1,0,0,0,559.5,sub08_Luoluo,44,s2_part1,20,s,2,1553682990,104.49815,sub08_Luoluo-s2_part1_120_40,8,redleft-greenright,0,1,1,true
1,0,0,0,524.4,sub08_Luoluo,45,s2_part1,20,s,2,1553682990,107.0396,sub08_Luoluo-s2_part1_120_40,8,redleft-greenright,0,1,1,true
0,0,0,1,795.5,sub08_Luoluo,46,s2_part1,20,s,2,1553682990,109.45605,sub08_Luoluo-s2_part1_120_40,8,redleft-greenright,1,0,1,true
0,0,0,1,716.5,sub08_Luoluo,47,s2_part1,20,s,2,1553682990,111.7475,sub08_Luoluo-s2_part1_120_40,8,redleft-greenright,1,0,1,true
0,0,0,1,819.4,sub08_Luoluo,48,s2_part1,20,s,2,1553682990,114.16395,sub08_Luoluo-s2_part1_120_40,8,redleft-greenright,1,0,1,true
1,0,0,0,680.5,sub08_Luoluo,49,s2_part1,20,s,2,1553682990,116.7054,sub08_Luoluo-s2_part1_120_40,8,redleft-greenright,0,1,1,false
1,0,0,0,743.4,sub08_Luoluo,50,s2_part1,20,s,2,1553682990,119.1219,sub08_Luoluo-s2_part1_120_40,8,redleft-greenright,0,1,1,true
1,1,0,0,716.4,sub08_Luoluo,51,s2_part1,20,s,2,1553682990,121.66335,sub08_Luoluo-s2_part1_120_40,8,redleft-greenright,1,1,1,false
0,1,0,1,705.4,sub08_Luoluo,52,s2_part1,20,s,2,1553682990,124.2048,sub08_Luoluo-s2_part1_120_40,8,redleft-greenright,0,0,1,true
1,0,0,0,664.3,sub08_Luoluo,53,s2_part1,20,s,2,1553682990,126.62125,sub08_Luoluo-s2_part1_120_40,8,redleft-greenright,0,1,1,true
1,0,0,0,621.4,sub08_Luoluo,54,s2_part1,20,s,2,1553682990,129.1627,sub08_Luoluo-s2_part1_120_40,8,redleft-greenright,0,1,1,true
1,1,0,0,572.3,sub08_Luoluo,55,s2_part1,20,s,2,1553682990,131.57915,sub08_Luoluo-s2_part1_120_40,8,redleft-greenright,1,1,1,true
1,0,0,0,601.4,sub08_Luoluo,56,s2_part1,20,s,2,1553682990,134.1206,sub08_Luoluo-s2_part1_120_40,8,redleft-greenright,0,1,1,true
0,1,0,1,678.3,sub08_Luoluo,57,s2_part1,20,s,2,1553682990,136.66205,sub08_Luoluo-s2_part1_120_40,8,redleft-greenright,0,0,1,true
0,1,0,1,731.3,sub08_Luoluo,58,s2_part1,20,s,2,1553682990,138.70355,sub08_Luoluo-s2_part1_120_40,8,redleft-greenright,0,0,1,false
1,0,0,0,650.2,sub08_Luoluo,59,s2_part1,20,s,2,1553682990,141.12,sub08_Luoluo-s2_part1_120_40,8,redleft-greenright,0,1,1,false
0,1,0,1,705.2,sub08_Luoluo,60,s2_part1,20,s,2,1553682990,143.53645,sub08_Luoluo-s2_part1_120_40,8,redleft-greenright,0,0,1,true
0,1,0,1,640.3,sub08_Luoluo,61,s2_part1,20,s,2,1553682990,145.9529,sub08_Luoluo-s2_part1_120_40,8,redleft-greenright,0,0,1,true
1,0,0,0,557.2,sub08_Luoluo,62,s2_part1,20,s,2,1553682990,148.49435,sub08_Luoluo-s2_part1_120_40,8,redleft-greenright,0,1,1,true
0,1,0,1,836.1,sub08_Luoluo,63,s2_part1,20,s,2,1553682990,150.9108,sub08_Luoluo-s2_part1_120_40,8,redleft-greenright,0,0,1,true
1,1,0,0,777.2,sub08_Luoluo,64,s2_part1,20,s,2,1553682990,153.45225,sub08_Luoluo-s2_part1_120_40,8,redleft-greenright,1,1,1,true
1,0,0,0,638.1,sub08_Luoluo,65,s2_part1,20,s,2,1553682990,155.49375,sub08_Luoluo-s2_part1_120_40,8,redleft-greenright,0,1,1,true
0,1,0,1,797,sub08_Luoluo,66,s2_part1,20,s,2,1553682990,157.9102,sub08_Luoluo-s2_part1_120_40,8,redleft-greenright,0,0,1,true
0,1,0,1,746.1,sub08_Luoluo,67,s2_part1,20,s,2,1553682990,160.45165,sub08_Luoluo-s2_part1_120_40,8,redleft-greenright,0,0,1,true
1,0,0,0,567.1,sub08_Luoluo,68,s2_part1,20,s,2,1553682990,162.9931,sub08_Luoluo-s2_part1_120_40,8,redleft-greenright,0,1,1,false
1,0,0,0,614.1,sub08_Luoluo,69,s2_part1,20,s,2,1553682990,165.4096,sub08_Luoluo-s2_part1_120_40,8,redleft-greenright,0,1,1,true
0,1,0,1,531,sub08_Luoluo,70,s2_part1,20,s,2,1553682990,167.95105,sub08_Luoluo-s2_part1_120_40,8,redleft-greenright,0,0,1,false
0,1,0,1,808,sub08_Luoluo,71,s2_part1,20,s,2,1553682990,170.4925,sub08_Luoluo-s2_part1_120_40,8,redleft-greenright,0,0,1,true
0,1,0,1,653,sub08_Luoluo,72,s2_part1,20,s,2,1553682990,173.0339,sub08_Luoluo-s2_part1_120_40,8,redleft-greenright,0,0,1,true
0,1,0,1,642.2,sub08_Luoluo,73,s2_part1,20,s,2,1553682990,175.57535,sub08_Luoluo-s2_part1_120_40,8,redleft-greenright,0,0,1,true
0,1,0,1,663.1,sub08_Luoluo,74,s2_part1,20,s,2,1553682990,178.1168,sub08_Luoluo-s2_part1_120_40,8,redleft-greenright,0,0,1,true
1,1,0,0,640,sub08_Luoluo,75,s2_part1,20,s,2,1553682990,180.4083,sub08_Luoluo-s2_part1_120_40,8,redleft-greenright,1,1,1,true
0,1,0,1,655,sub08_Luoluo,76,s2_part1,20,s,2,1553682990,182.82475,sub08_Luoluo-s2_part1_120_40,8,redleft-greenright,0,0,1,true
0,1,0,1,684,sub08_Luoluo,77,s2_part1,20,s,2,1553682990,185.3662,sub08_Luoluo-s2_part1_120_40,8,redleft-greenright,0,0,1,true
0,0,0,1,736.9,sub08_Luoluo,78,s2_part1,20,s,2,1553682990,187.90765,sub08_Luoluo-s2_part1_120_40,8,redleft-greenright,1,0,1,false
1,0,0,0,932.1,sub08_Luoluo,79,s2_part1,20,s,2,1553682990,190.07415,sub08_Luoluo-s2_part1_120_40,8,redleft-greenright,0,1,1,true
0,1,0,1,625,sub08_Luoluo,80,s2_part1,20,s,2,1553682990,192.6156,sub08_Luoluo-s2_part1_120_40,8,redleft-greenright,0,0,1,true
0,0,1,0,683.9,sub08_Luoluo,81,s2_part1,20,s,3,1553682990,194.78205,sub08_Luoluo-s2_part1_120_40,8,redleft-greenright,1,0,1,true
1,0,0,0,1384.9,sub08_Luoluo,82,s2_part1,20,s,3,1553682990,197.3235,sub08_Luoluo-s2_part1_120_40,8,redleft-greenright,0,1,1,true
1,0,0,0,631.9,sub08_Luoluo,83,s2_part1,20,s,3,1553682990,199.73995,sub08_Luoluo-s2_part1_120_40,8,redleft-greenright,0,1,1,true
0,1,0,1,636.9,sub08_Luoluo,84,s2_part1,20,s,3,1553682990,202.2814,sub08_Luoluo-s2_part1_120_40,8,redleft-greenright,0,0,1,false
1,0,0,0,571.9,sub08_Luoluo,85,s2_part1,20,s,3,1553682990,204.6979,sub08_Luoluo-s2_part1_120_40,8,redleft-greenright,0,1,1,false
1,0,0,0,896.9,sub08_Luoluo,86,s2_part1,20,s,3,1553682990,207.23935,sub08_Luoluo-s2_part1_120_40,8,redleft-greenright,0,1,1,true
1,0,0,0,765.8,sub08_Luoluo,87,s2_part1,20,s,3,1553682990,209.78075,sub08_Luoluo-s2_part1_120_40,8,redleft-greenright,0,1,1,true
0,1,0,1,724.8,sub08_Luoluo,88,s2_part1,20,s,3,1553682990,212.19725,sub08_Luoluo-s2_part1_120_40,8,redleft-greenright,0,0,1,true
1,0,0,0,743.8,sub08_Luoluo,89,s2_part1,20,s,3,1553682990,214.3637,sub08_Luoluo-s2_part1_120_40,8,redleft-greenright,0,1,1,true
1,0,0,0,744.8,sub08_Luoluo,90,s2_part1,20,s,3,1553682990,216.6552,sub08_Luoluo-s2_part1_120_40,8,redleft-greenright,0,1,1,true
1,0,0,0,741.7,sub08_Luoluo,91,s2_part1,20,s,3,1553682990,219.19665,sub08_Luoluo-s2_part1_120_40,8,redleft-greenright,0,1,1,true
0,1,0,1,789,sub08_Luoluo,92,s2_part1,20,s,3,1553682990,221.6131,sub08_Luoluo-s2_part1_120_40,8,redleft-greenright,0,0,1,false
0,1,1,0,1123.7,sub08_Luoluo,93,s2_part1,20,s,3,1553682990,224.02955,sub08_Luoluo-s2_part1_120_40,8,redleft-greenright,0,0,1,true
0,1,1,0,1088.6,sub08_Luoluo,94,s2_part1,20,s,3,1553682990,226.571,sub08_Luoluo-s2_part1_120_40,8,redleft-greenright,0,0,1,true
1,1,1,1,941.8,sub08_Luoluo,95,s2_part1,20,s,3,1553682990,229.11245,sub08_Luoluo-s2_part1_120_40,8,redleft-greenright,1,1,1,true
0,1,1,0,568.7,sub08_Luoluo,96,s2_part1,20,s,3,1553682990,231.27895,sub08_Luoluo-s2_part1_120_40,8,redleft-greenright,0,0,1,true
1,0,1,1,543.7,sub08_Luoluo,97,s2_part1,20,s,3,1553682990,233.6954,sub08_Luoluo-s2_part1_120_40,8,redleft-greenright,0,1,1,false
1,1,1,1,1300.7,sub08_Luoluo,98,s2_part1,20,s,3,1553682990,236.23685,sub08_Luoluo-s2_part1_120_40,8,redleft-greenright,1,1,1,true
0,1,1,0,597.6,sub08_Luoluo,99,s2_part1,20,s,3,1553682990,238.5283,sub08_Luoluo-s2_part1_120_40,8,redleft-greenright,0,0,1,true
0,1,1,0,804.6,sub08_Luoluo,100,s2_part1,20,s,3,1553682990,240.4448,sub08_Luoluo-s2_part1_120_40,8,redleft-greenright,0,0,1,false
1,0,1,1,673.5,sub08_Luoluo,101,s2_part1,20,s,3,1553682990,242.98625,sub08_Luoluo-s2_part1_120_40,8,redleft-greenright,0,1,1,true
0,1,1,0,902.4,sub08_Luoluo,102,s2_part1,20,s,3,1553682990,245.02775,sub08_Luoluo-s2_part1_120_40,8,redleft-greenright,0,0,1,true
0,1,1,0,835.7,sub08_Luoluo,103,s2_part1,20,s,3,1553682990,247.5692,sub08_Luoluo-s2_part1_120_40,8,redleft-greenright,0,0,1,true
0,0,1,0,1400.3,sub08_Luoluo,104,s2_part1,20,s,3,1553682990,250.11065,sub08_Luoluo-s2_part1_120_40,8,redleft-greenright,1,0,1,false
0,1,1,0,813.4,sub08_Luoluo,105,s2_part1,20,s,3,1553682990,252.6521,sub08_Luoluo-s2_part1_120_40,8,redleft-greenright,0,0,1,true
0,1,1,0,740.4,sub08_Luoluo,106,s2_part1,20,s,3,1553682990,255.06855,sub08_Luoluo-s2_part1_120_40,8,redleft-greenright,0,0,1,true
1,0,1,1,913.4,sub08_Luoluo,107,s2_part1,20,s,3,1553682990,257.61,sub08_Luoluo-s2_part1_120_40,8,redleft-greenright,0,1,1,true
0,0,0,1,1134.4,sub08_Luoluo,108,s2_part1,20,s,3,1553682990,260.15145,sub08_Luoluo-s2_part1_120_40,8,redleft-greenright,1,0,1,true
1,1,1,1,1283.4,sub08_Luoluo,109,s2_part1,20,s,3,1553682990,262.6929,sub08_Luoluo-s2_part1_120_40,8,redleft-greenright,1,1,1,true
0,1,1,0,776.3,sub08_Luoluo,110,s2_part1,20,s,3,1553682990,264.7344,sub08_Luoluo-s2_part1_120_40,8,redleft-greenright,0,0,1,false
0,1,1,0,917.3,sub08_Luoluo,111,s2_part1,20,s,3,1553682990,267.27585,sub08_Luoluo-s2_part1_120_40,8,redleft-greenright,0,0,1,true
1,0,1,1,732.2,sub08_Luoluo,112,s2_part1,20,s,3,1553682990,269.6923,sub08_Luoluo-s2_part1_120_40,8,redleft-greenright,0,1,1,false
1,0,1,1,801.3,sub08_Luoluo,113,s2_part1,20,s,3,1553682990,272.23375,sub08_Luoluo-s2_part1_120_40,8,redleft-greenright,0,1,1,true
1,1,1,1,838.3,sub08_Luoluo,114,s2_part1,20,s,3,1553682990,274.7752,sub08_Luoluo-s2_part1_120_40,8,redleft-greenright,1,1,1,true
0,0,1,0,1083.3,sub08_Luoluo,115,s2_part1,20,s,3,1553682990,277.31665,sub08_Luoluo-s2_part1_120_40,8,redleft-greenright,1,0,1,true
0,1,1,0,1032.3,sub08_Luoluo,116,s2_part1,20,s,3,1553682990,279.8581,sub08_Luoluo-s2_part1_120_40,8,redleft-greenright,0,0,1,true
0,1,1,0,671.3,sub08_Luoluo,117,s2_part1,20,s,3,1553682990,282.27455,sub08_Luoluo-s2_part1_120_40,8,redleft-greenright,0,0,1,true
1,0,1,1,606.3,sub08_Luoluo,118,s2_part1,20,s,3,1553682990,284.691,sub08_Luoluo-s2_part1_120_40,8,redleft-greenright,0,1,1,true
1,0,1,1,1245.3,sub08_Luoluo,119,s2_part1,20,s,3,1553682990,287.1075,sub08_Luoluo-s2_part1_120_40,8,redleft-greenright,0,1,1,true
1,0,1,1,956.4,sub08_Luoluo,120,s2_part1,20,s,3,1553682990,289.52395,sub08_Luoluo-s2_part1_120_40,8,redleft-greenright,0,1,1,true
0,1,1,0,633.2,sub08_Luoluo,121,s2_part1,80,s,4,1553682990,292.0654,sub08_Luoluo-s2_part1_120_40,8,redleft-greenright,0,0,1,false
1,0,1,1,590.2,sub08_Luoluo,122,s2_part1,80,s,4,1553682990,294.60685,sub08_Luoluo-s2_part1_120_40,8,redleft-greenright,0,1,1,true
1,1,1,1,923.1,sub08_Luoluo,123,s2_part1,80,s,4,1553682990,296.64835,sub08_Luoluo-s2_part1_120_40,8,redleft-greenright,1,1,1,true
1,1,1,1,1152.1,sub08_Luoluo,124,s2_part1,80,s,4,1553682990,299.18975,sub08_Luoluo-s2_part1_120_40,8,redleft-greenright,1,1,1,true
1,1,1,1,815.2,sub08_Luoluo,125,s2_part1,80,s,4,1553682990,301.60625,sub08_Luoluo-s2_part1_120_40,8,redleft-greenright,1,1,1,true
1,0,1,1,852.1,sub08_Luoluo,126,s2_part1,80,s,4,1553682990,304.1477,sub08_Luoluo-s2_part1_120_40,8,redleft-greenright,0,1,1,false
0,0,1,0,1017,sub08_Luoluo,127,s2_part1,80,s,4,1553682990,306.68915,sub08_Luoluo-s2_part1_120_40,8,redleft-greenright,1,0,1,true
1,1,1,1,1432.2,sub08_Luoluo,128,s2_part1,80,s,4,1553682990,309.1056,sub08_Luoluo-s2_part1_120_40,8,redleft-greenright,1,1,1,false
0,0,1,0,871.1,sub08_Luoluo,129,s2_part1,80,s,4,1553682990,311.52205,sub08_Luoluo-s2_part1_120_40,8,redleft-greenright,1,0,1,true
0,0,1,0,1164.1,sub08_Luoluo,130,s2_part1,80,s,4,1553682990,314.0635,sub08_Luoluo-s2_part1_120_40,8,redleft-greenright,1,0,1,true
0,0,1,0,969.1,sub08_Luoluo,131,s2_part1,80,s,4,1553682990,316.60495,sub08_Luoluo-s2_part1_120_40,8,redleft-greenright,1,0,1,true
1,1,1,1,774.1,sub08_Luoluo,132,s2_part1,80,s,4,1553682990,319.1464,sub08_Luoluo-s2_part1_120_40,8,redleft-greenright,1,1,1,true
0,0,1,0,795.1,sub08_Luoluo,133,s2_part1,80,s,4,1553682990,321.68785,sub08_Luoluo-s2_part1_120_40,8,redleft-greenright,1,0,1,false
1,0,1,1,904.1,sub08_Luoluo,134,s2_part1,80,s,4,1553682990,324.2293,sub08_Luoluo-s2_part1_120_40,8,redleft-greenright,0,1,1,true
1,1,0,0,829.2,sub08_Luoluo,135,s2_part1,80,s,4,1553682990,326.77075,sub08_Luoluo-s2_part1_120_40,8,redleft-greenright,1,1,1,false
1,1,1,1,826.1,sub08_Luoluo,136,s2_part1,80,s,4,1553682990,329.3122,sub08_Luoluo-s2_part1_120_40,8,redleft-greenright,1,1,1,true
0,0,1,0,737.2,sub08_Luoluo,137,s2_part1,80,s,4,1553682990,331.72865,sub08_Luoluo-s2_part1_120_40,8,redleft-greenright,1,0,1,true
1,1,1,1,1370.2,sub08_Luoluo,138,s2_part1,80,s,4,1553682990,334.0201,sub08_Luoluo-s2_part1_120_40,8,redleft-greenright,1,1,1,true
0,1,1,0,671.1,sub08_Luoluo,139,s2_part1,80,s,4,1553682990,336.56155,sub08_Luoluo-s2_part1_120_40,8,redleft-greenright,0,0,1,true
0,0,0,1,804.3,sub08_Luoluo,140,s2_part1,80,s,4,1553682990,338.60305,sub08_Luoluo-s2_part1_120_40,8,redleft-greenright,1,0,1,false
1,1,0,0,1049,sub08_Luoluo,141,s2_part1,80,s,4,1553682990,341.1445,sub08_Luoluo-s2_part1_120_40,8,redleft-greenright,1,1,1,true
1,1,1,1,1295.8,sub08_Luoluo,142,s2_part1,80,s,4,1553682990,343.56095,sub08_Luoluo-s2_part1_120_40,8,redleft-greenright,1,1,1,true
0,0,1,0,838.9,sub08_Luoluo,143,s2_part1,80,s,4,1553682990,345.97745,sub08_Luoluo-s2_part1_120_40,8,redleft-greenright,1,0,1,true
0,1,1,0,860,sub08_Luoluo,144,s2_part1,80,s,4,1553682990,348.5189,sub08_Luoluo-s2_part1_120_40,8,redleft-greenright,0,0,1,false
1,0,1,1,624.9,sub08_Luoluo,145,s2_part1,80,s,4,1553682990,351.06035,sub08_Luoluo-s2_part1_120_40,8,redleft-greenright,0,1,1,false
1,1,1,1,1031.9,sub08_Luoluo,146,s2_part1,80,s,4,1553682990,353.4768,sub08_Luoluo-s2_part1_120_40,8,redleft-greenright,1,1,1,true
0,0,1,0,1380.9,sub08_Luoluo,147,s2_part1,80,s,4,1553682990,356.01825,sub08_Luoluo-s2_part1_120_40,8,redleft-greenright,1,0,1,true
0,1,1,0,609.9,sub08_Luoluo,148,s2_part1,80,s,4,1553682990,358.5597,sub08_Luoluo-s2_part1_120_40,8,redleft-greenright,0,0,1,true
0,0,1,0,750.9,sub08_Luoluo,149,s2_part1,80,s,4,1553682990,361.10115,sub08_Luoluo-s2_part1_120_40,8,redleft-greenright,1,0,1,true
1,1,1,1,729.8,sub08_Luoluo,150,s2_part1,80,s,4,1553682990,363.2676,sub08_Luoluo-s2_part1_120_40,8,redleft-greenright,1,1,1,true
1,1,1,1,896.9,sub08_Luoluo,151,s2_part1,80,s,4,1553682990,365.68405,sub08_Luoluo-s2_part1_120_40,8,redleft-greenright,1,1,1,false
0,0,1,0,661.8,sub08_Luoluo,152,s2_part1,80,s,4,1553682990,368.2255,sub08_Luoluo-s2_part1_120_40,8,redleft-greenright,1,0,1,false
1,1,1,1,730.8,sub08_Luoluo,153,s2_part1,80,s,4,1553682990,370.76695,sub08_Luoluo-s2_part1_120_40,8,redleft-greenright,1,1,1,true
0,0,1,0,649.8,sub08_Luoluo,154,s2_part1,80,s,4,1553682990,372.6835,sub08_Luoluo-s2_part1_120_40,8,redleft-greenright,1,0,1,true
1,1,1,1,724.6,sub08_Luoluo,155,s2_part1,80,s,4,1553682990,374.84995,sub08_Luoluo-s2_part1_120_40,8,redleft-greenright,1,1,1,true
0,0,1,0,643.7,sub08_Luoluo,156,s2_part1,80,s,4,1553682990,377.2664,sub08_Luoluo-s2_part1_120_40,8,redleft-greenright,1,0,1,true
1,1,1,1,674.7,sub08_Luoluo,157,s2_part1,80,s,4,1553682990,379.6829,sub08_Luoluo-s2_part1_120_40,8,redleft-greenright,1,1,1,true
0,0,1,0,777.7,sub08_Luoluo,158,s2_part1,80,s,4,1553682990,382.09935,sub08_Luoluo-s2_part1_120_40,8,redleft-greenright,1,0,1,true
0,0,1,0,1126.6,sub08_Luoluo,159,s2_part1,80,s,4,1553682990,384.6408,sub08_Luoluo-s2_part1_120_40,8,redleft-greenright,1,0,1,true
0,0,1,0,629.5,sub08_Luoluo,160,s2_part1,80,s,4,1553682990,387.05725,sub08_Luoluo-s2_part1_120_40,8,redleft-greenright,1,0,1,true
1,1,1,1,813,sub08_Luoluo,161,s2_part2,80,s,1,1553683878,0.2134,sub08_Luoluo-s2_part2_80_80,8,redleft-greenright,1,1,2,false
0,0,1,0,724,sub08_Luoluo,162,s2_part2,80,s,1,1553683878,2.62985,sub08_Luoluo-s2_part2_80_80,8,redleft-greenright,1,0,2,true
1,1,1,1,761,sub08_Luoluo,163,s2_part2,80,s,1,1553683878,5.1713,sub08_Luoluo-s2_part2_80_80,8,redleft-greenright,1,1,2,true
0,0,1,0,792,sub08_Luoluo,164,s2_part2,80,s,1,1553683878,7.5878,sub08_Luoluo-s2_part2_80_80,8,redleft-greenright,1,0,2,true
1,1,1,1,737,sub08_Luoluo,165,s2_part2,80,s,1,1553683878,9.87925,sub08_Luoluo-s2_part2_80_80,8,redleft-greenright,1,1,2,true
0,0,1,0,622,sub08_Luoluo,166,s2_part2,80,s,1,1553683878,12.4207,sub08_Luoluo-s2_part2_80_80,8,redleft-greenright,1,0,2,false
0,1,1,0,932.9,sub08_Luoluo,167,s2_part2,80,s,1,1553683878,14.83715,sub08_Luoluo-s2_part2_80_80,8,redleft-greenright,0,0,2,true
0,0,1,0,657.9,sub08_Luoluo,168,s2_part2,80,s,1,1553683878,17.3786,sub08_Luoluo-s2_part2_80_80,8,redleft-greenright,1,0,2,true
1,1,1,1,659.2,sub08_Luoluo,169,s2_part2,80,s,1,1553683878,19.6701,sub08_Luoluo-s2_part2_80_80,8,redleft-greenright,1,1,2,false
0,0,1,0,792.1,sub08_Luoluo,170,s2_part2,80,s,1,1553683878,22.2115,sub08_Luoluo-s2_part2_80_80,8,redleft-greenright,1,0,2,true
0,0,1,0,740.9,sub08_Luoluo,171,s2_part2,80,s,1,1553683878,24.753,sub08_Luoluo-s2_part2_80_80,8,redleft-greenright,1,0,2,true
0,1,1,0,667.9,sub08_Luoluo,172,s2_part2,80,s,1,1553683878,27.16945,sub08_Luoluo-s2_part2_80_80,8,redleft-greenright,0,0,2,true
0,0,1,0,610.9,sub08_Luoluo,173,s2_part2,80,s,1,1553683878,29.5859,sub08_Luoluo-s2_part2_80_80,8,redleft-greenright,1,0,2,true
0,0,1,0,559.8,sub08_Luoluo,174,s2_part2,80,s,1,1553683878,32.12735,sub08_Luoluo-s2_part2_80_80,8,redleft-greenright,1,0,2,true
1,1,1,1,794.8,sub08_Luoluo,175,s2_part2,80,s,1,1553683878,34.29385,sub08_Luoluo-s2_part2_80_80,8,redleft-greenright,1,1,2,false
1,0,1,1,815.8,sub08_Luoluo,176,s2_part2,80,s,1,1553683878,36.83525,sub08_Luoluo-s2_part2_80_80,8,redleft-greenright,0,1,2,true
1,1,1,1,694.7,sub08_Luoluo,177,s2_part2,80,s,1,1553683878,38.7518,sub08_Luoluo-s2_part2_80_80,8,redleft-greenright,1,1,2,true
0,0,1,0,699.7,sub08_Luoluo,178,s2_part2,80,s,1,1553683878,41.2932,sub08_Luoluo-s2_part2_80_80,8,redleft-greenright,1,0,2,false
1,1,1,1,888.7,sub08_Luoluo,179,s2_part2,80,s,1,1553683878,43.83465,sub08_Luoluo-s2_part2_80_80,8,redleft-greenright,1,1,2,true
0,1,1,0,589.9,sub08_Luoluo,180,s2_part2,80,s,1,1553683878,46.3761,sub08_Luoluo-s2_part2_80_80,8,redleft-greenright,0,0,2,true
1,0,1,1,698.7,sub08_Luoluo,181,s2_part2,80,s,1,1553683878,48.91755,sub08_Luoluo-s2_part2_80_80,8,redleft-greenright,0,1,2,true
0,0,1,0,793.7,sub08_Luoluo,182,s2_part2,80,s,1,1553683878,51.33405,sub08_Luoluo-s2_part2_80_80,8,redleft-greenright,1,0,2,true
0,0,1,0,622.7,sub08_Luoluo,183,s2_part2,80,s,1,1553683878,53.37555,sub08_Luoluo-s2_part2_80_80,8,redleft-greenright,1,0,2,true
1,1,1,1,685.6,sub08_Luoluo,184,s2_part2,80,s,1,1553683878,55.792,sub08_Luoluo-s2_part2_80_80,8,redleft-greenright,1,1,2,false
1,0,1,1,628.6,sub08_Luoluo,185,s2_part2,80,s,1,1553683878,58.20845,sub08_Luoluo-s2_part2_80_80,8,redleft-greenright,0,1,2,true
0,0,1,0,713.7,sub08_Luoluo,186,s2_part2,80,s,1,1553683878,60.7499,sub08_Luoluo-s2_part2_80_80,8,redleft-greenright,1,0,2,false
1,1,1,1,758.6,sub08_Luoluo,187,s2_part2,80,s,1,1553683878,63.29135,sub08_Luoluo-s2_part2_80_80,8,redleft-greenright,1,1,2,true
1,1,1,1,731.6,sub08_Luoluo,188,s2_part2,80,s,1,1553683878,65.8328,sub08_Luoluo-s2_part2_80_80,8,redleft-greenright,1,1,2,true
0,0,1,0,600.6,sub08_Luoluo,189,s2_part2,80,s,1,1553683878,68.37425,sub08_Luoluo-s2_part2_80_80,8,redleft-greenright,1,0,2,true
1,1,1,1,677.5,sub08_Luoluo,190,s2_part2,80,s,1,1553683878,70.9157,sub08_Luoluo-s2_part2_80_80,8,redleft-greenright,1,1,2,true
0,0,1,0,666.6,sub08_Luoluo,191,s2_part2,80,s,1,1553683878,73.45715,sub08_Luoluo-s2_part2_80_80,8,redleft-greenright,1,0,2,true
0,0,1,0,671.6,sub08_Luoluo,192,s2_part2,80,s,1,1553683878,75.9986,sub08_Luoluo-s2_part2_80_80,8,redleft-greenright,1,0,2,true
1,1,1,1,908.5,sub08_Luoluo,193,s2_part2,80,s,1,1553683878,78.0401,sub08_Luoluo-s2_part2_80_80,8,redleft-greenright,1,1,2,false
1,1,1,1,723.5,sub08_Luoluo,194,s2_part2,80,s,1,1553683878,80.45655,sub08_Luoluo-s2_part2_80_80,8,redleft-greenright,1,1,2,true
1,0,1,1,712.5,sub08_Luoluo,195,s2_part2,80,s,1,1553683878,82.998,sub08_Luoluo-s2_part2_80_80,8,redleft-greenright,0,1,2,false
1,1,1,1,837.5,sub08_Luoluo,196,s2_part2,80,s,1,1553683878,85.53945,sub08_Luoluo-s2_part2_80_80,8,redleft-greenright,1,1,2,true
0,0,1,0,660.5,sub08_Luoluo,197,s2_part2,80,s,1,1553683878,87.9559,sub08_Luoluo-s2_part2_80_80,8,redleft-greenright,1,0,2,true
1,1,1,1,735.5,sub08_Luoluo,198,s2_part2,80,s,1,1553683878,90.12235,sub08_Luoluo-s2_part2_80_80,8,redleft-greenright,1,1,2,true
0,1,1,0,692.5,sub08_Luoluo,199,s2_part2,80,s,1,1553683878,92.6638,sub08_Luoluo-s2_part2_80_80,8,redleft-greenright,0,0,2,true
1,1,1,1,683.4,sub08_Luoluo,200,s2_part2,80,s,1,1553683878,95.0803,sub08_Luoluo-s2_part2_80_80,8,redleft-greenright,1,1,2,true
0,0,1,0,586.3,sub08_Luoluo,201,s2_part2,80,s,2,1553683878,97.49675,sub08_Luoluo-s2_part2_80_80,8,redleft-greenright,1,0,2,false
0,0,1,0,833.3,sub08_Luoluo,202,s2_part2,80,s,2,1553683878,99.9132,sub08_Luoluo-s2_part2_80_80,8,redleft-greenright,1,0,2,true
0,1,1,0,678.4,sub08_Luoluo,203,s2_part2,80,s,2,1553683878,102.45465,sub08_Luoluo-s2_part2_80_80,8,redleft-greenright,0,0,2,false
1,1,1,1,669.3,sub08_Luoluo,204,s2_part2,80,s,2,1553683878,104.8711,sub08_Luoluo-s2_part2_80_80,8,redleft-greenright,1,1,2,true
1,1,1,1,642.4,sub08_Luoluo,205,s2_part2,80,s,2,1553683878,107.41255,sub08_Luoluo-s2_part2_80_80,8,redleft-greenright,1,1,2,true
0,1,1,0,663.3,sub08_Luoluo,206,s2_part2,80,s,2,1553683878,109.954,sub08_Luoluo-s2_part2_80_80,8,redleft-greenright,0,0,2,true
1,1,1,1,1334.2,sub08_Luoluo,207,s2_part2,80,s,2,1553683878,112.37045,sub08_Luoluo-s2_part2_80_80,8,redleft-greenright,1,1,2,true
0,1,1,0,667.3,sub08_Luoluo,208,s2_part2,80,s,2,1553683878,114.9119,sub08_Luoluo-s2_part2_80_80,8,redleft-greenright,0,0,2,true
1,1,1,1,778.3,sub08_Luoluo,209,s2_part2,80,s,2,1553683878,117.32835,sub08_Luoluo-s2_part2_80_80,8,redleft-greenright,1,1,2,true
1,1,1,1,743.3,sub08_Luoluo,210,s2_part2,80,s,2,1553683878,119.86985,sub08_Luoluo-s2_part2_80_80,8,redleft-greenright,1,1,2,true
0,0,1,0,716.4,sub08_Luoluo,211,s2_part2,80,s,2,1553683878,122.4113,sub08_Luoluo-s2_part2_80_80,8,redleft-greenright,1,0,2,false
0,0,1,0,1161.3,sub08_Luoluo,212,s2_part2,80,s,2,1553683878,124.9527,sub08_Luoluo-s2_part2_80_80,8,redleft-greenright,1,0,2,true
1,0,1,1,718.2,sub08_Luoluo,213,s2_part2,80,s,2,1553683878,126.9942,sub08_Luoluo-s2_part2_80_80,8,redleft-greenright,0,1,2,true
1,1,1,1,1095.2,sub08_Luoluo,214,s2_part2,80,s,2,1553683878,129.2857,sub08_Luoluo-s2_part2_80_80,8,redleft-greenright,1,1,2,false
1,1,1,1,726.1,sub08_Luoluo,215,s2_part2,80,s,2,1553683878,131.70215,sub08_Luoluo-s2_part2_80_80,8,redleft-greenright,1,1,2,true
1,1,1,1,683.2,sub08_Luoluo,216,s2_part2,80,s,2,1553683878,134.2436,sub08_Luoluo-s2_part2_80_80,8,redleft-greenright,1,1,2,true
0,0,1,0,578.1,sub08_Luoluo,217,s2_part2,80,s,2,1553683878,136.66005,sub08_Luoluo-s2_part2_80_80,8,redleft-greenright,1,0,2,true
0,0,1,0,649.1,sub08_Luoluo,218,s2_part2,80,s,2,1553683878,139.0765,sub08_Luoluo-s2_part2_80_80,8,redleft-greenright,1,0,2,true
1,0,1,1,700.1,sub08_Luoluo,219,s2_part2,80,s,2,1553683878,141.243,sub08_Luoluo-s2_part2_80_80,8,redleft-greenright,0,1,2,true
0,0,1,0,769.1,sub08_Luoluo,220,s2_part2,80,s,2,1553683878,143.78445,sub08_Luoluo-s2_part2_80_80,8,redleft-greenright,1,0,2,false
1,1,1,1,606.1,sub08_Luoluo,221,s2_part2,80,s,2,1553683878,146.3259,sub08_Luoluo-s2_part2_80_80,8,redleft-greenright,1,1,2,true
0,0,1,0,645,sub08_Luoluo,222,s2_part2,80,s,2,1553683878,148.2424,sub08_Luoluo-s2_part2_80_80,8,redleft-greenright,1,0,2,true
0,0,1,0,836,sub08_Luoluo,223,s2_part2,80,s,2,1553683878,150.65885,sub08_Luoluo-s2_part2_80_80,8,redleft-greenright,1,0,2,true
1,0,1,1,736.9,sub08_Luoluo,224,s2_part2,80,s,2,1553683878,153.2003,sub08_Luoluo-s2_part2_80_80,8,redleft-greenright,0,1,2,true
1,1,1,1,933.9,sub08_Luoluo,225,s2_part2,80,s,2,1553683878,155.74175,sub08_Luoluo-s2_part2_80_80,8,redleft-greenright,1,1,2,false
0,0,1,0,555,sub08_Luoluo,226,s2_part2,80,s,2,1553683878,158.2832,sub08_Luoluo-s2_part2_80_80,8,redleft-greenright,1,0,2,true
1,1,1,1,623.9,sub08_Luoluo,227,s2_part2,80,s,2,1553683878,160.82465,sub08_Luoluo-s2_part2_80_80,8,redleft-greenright,1,1,2,true
1,1,1,1,748.9,sub08_Luoluo,228,s2_part2,80,s,2,1553683878,163.3661,sub08_Luoluo-s2_part2_80_80,8,redleft-greenright,1,1,2,true
0,0,1,0,761.9,sub08_Luoluo,229,s2_part2,80,s,2,1553683878,165.90755,sub08_Luoluo-s2_part2_80_80,8,redleft-greenright,1,0,2,false
1,1,1,1,714.9,sub08_Luoluo,230,s2_part2,80,s,2,1553683878,168.199,sub08_Luoluo-s2_part2_80_80,8,redleft-greenright,1,1,2,true
1,1,1,1,799.9,sub08_Luoluo,231,s2_part2,80,s,2,1553683878,170.74045,sub08_Luoluo-s2_part2_80_80,8,redleft-greenright,1,1,2,true
0,0,1,0,646.9,sub08_Luoluo,232,s2_part2,80,s,2,1553683878,173.1569,sub08_Luoluo-s2_part2_80_80,8,redleft-greenright,1,0,2,true
0,0,1,0,771.9,sub08_Luoluo,233,s2_part2,80,s,2,1553683878,175.69835,sub08_Luoluo-s2_part2_80_80,8,redleft-greenright,1,0,2,true
0,0,1,0,918.8,sub08_Luoluo,234,s2_part2,80,s,2,1553683878,177.86485,sub08_Luoluo-s2_part2_80_80,8,redleft-greenright,1,0,2,true
1,1,1,1,619.8,sub08_Luoluo,235,s2_part2,80,s,2,1553683878,180.4063,sub08_Luoluo-s2_part2_80_80,8,redleft-greenright,1,1,2,false
0,1,1,0,712.8,sub08_Luoluo,236,s2_part2,80,s,2,1553683878,182.4478,sub08_Luoluo-s2_part2_80_80,8,redleft-greenright,0,0,2,true
1,0,1,1,743.8,sub08_Luoluo,237,s2_part2,80,s,2,1553683878,184.86425,sub08_Luoluo-s2_part2_80_80,8,redleft-greenright,0,1,2,true
0,0,1,0,716.8,sub08_Luoluo,238,s2_part2,80,s,2,1553683878,187.4057,sub08_Luoluo-s2_part2_80_80,8,redleft-greenright,1,0,2,false
0,0,1,0,705.8,sub08_Luoluo,239,s2_part2,80,s,2,1553683878,189.94715,sub08_Luoluo-s2_part2_80_80,8,redleft-greenright,1,0,2,true
1,1,1,1,1176.7,sub08_Luoluo,240,s2_part2,80,s,2,1553683878,192.3636,sub08_Luoluo-s2_part2_80_80,8,redleft-greenright,1,1,2,true
1,0,1,1,759.7,sub08_Luoluo,241,s2_part2,20,s,3,1553683878,194.78005,sub08_Luoluo-s2_part2_80_80,8,redleft-greenright,0,1,2,true
0,1,1,0,668.7,sub08_Luoluo,242,s2_part2,20,s,3,1553683878,197.3215,sub08_Luoluo-s2_part2_80_80,8,redleft-greenright,0,0,2,false
1,0,1,1,723.7,sub08_Luoluo,243,s2_part2,20,s,3,1553683878,199.738,sub08_Luoluo-s2_part2_80_80,8,redleft-greenright,0,1,2,true
0,0,1,0,800.7,sub08_Luoluo,244,s2_part2,20,s,3,1553683878,202.27945,sub08_Luoluo-s2_part2_80_80,8,redleft-greenright,1,0,2,true
1,0,1,1,811.6,sub08_Luoluo,245,s2_part2,20,s,3,1553683878,204.4459,sub08_Luoluo-s2_part2_80_80,8,redleft-greenright,0,1,2,true
0,1,1,0,648.6,sub08_Luoluo,246,s2_part2,20,s,3,1553683878,206.98735,sub08_Luoluo-s2_part2_80_80,8,redleft-greenright,0,0,2,true
0,1,1,0,685.7,sub08_Luoluo,247,s2_part2,20,s,3,1553683878,209.5288,sub08_Luoluo-s2_part2_80_80,8,redleft-greenright,0,0,2,true
1,0,1,1,1298.6,sub08_Luoluo,248,s2_part2,20,s,3,1553683878,212.07025,sub08_Luoluo-s2_part2_80_80,8,redleft-greenright,0,1,2,false
0,0,1,0,803.6,sub08_Luoluo,249,s2_part2,20,s,3,1553683878,214.36175,sub08_Luoluo-s2_part2_80_80,8,redleft-greenright,1,0,2,true
1,0,1,1,730.5,sub08_Luoluo,250,s2_part2,20,s,3,1553683878,216.7782,sub08_Luoluo-s2_part2_80_80,8,redleft-greenright,0,1,2,true
0,0,1,0,839.6,sub08_Luoluo,251,s2_part2,20,s,3,1553683878,219.31965,sub08_Luoluo-s2_part2_80_80,8,redleft-greenright,1,0,2,true
1,0,1,1,978.5,sub08_Luoluo,252,s2_part2,20,s,3,1553683878,221.4861,sub08_Luoluo-s2_part2_80_80,8,redleft-greenright,0,1,2,true
0,1,1,0,513.5,sub08_Luoluo,253,s2_part2,20,s,3,1553683878,223.90255,sub08_Luoluo-s2_part2_80_80,8,redleft-greenright,0,0,2,false
1,0,1,1,808.5,sub08_Luoluo,254,s2_part2,20,s,3,1553683878,226.31905,sub08_Luoluo-s2_part2_80_80,8,redleft-greenright,0,1,2,true
1,0,1,1,693.4,sub08_Luoluo,255,s2_part2,20,s,3,1553683878,228.3605,sub08_Luoluo-s2_part2_80_80,8,redleft-greenright,0,1,2,true
1,1,1,1,722.4,sub08_Luoluo,256,s2_part2,20,s,3,1553683878,230.90195,sub08_Luoluo-s2_part2_80_80,8,redleft-greenright,1,1,2,true
0,1,1,0,585.4,sub08_Luoluo,257,s2_part2,20,s,3,1553683878,233.31845,sub08_Luoluo-s2_part2_80_80,8,redleft-greenright,0,0,2,true
0,1,1,0,824.3,sub08_Luoluo,258,s2_part2,20,s,3,1553683878,235.7349,sub08_Luoluo-s2_part2_80_80,8,redleft-greenright,0,0,2,true
1,0,1,1,857.4,sub08_Luoluo,259,s2_part2,20,s,3,1553683878,238.02635,sub08_Luoluo-s2_part2_80_80,8,redleft-greenright,0,1,2,false
0,1,1,0,518.3,sub08_Luoluo,260,s2_part2,20,s,3,1553683878,240.5678,sub08_Luoluo-s2_part2_80_80,8,redleft-greenright,0,0,2,true
1,1,1,1,805.3,sub08_Luoluo,261,s2_part2,20,s,3,1553683878,242.98425,sub08_Luoluo-s2_part2_80_80,8,redleft-greenright,1,1,2,true
0,1,1,0,578.3,sub08_Luoluo,262,s2_part2,20,s,3,1553683878,245.5257,sub08_Luoluo-s2_part2_80_80,8,redleft-greenright,0,0,2,false
0,0,1,0,807.4,sub08_Luoluo,263,s2_part2,20,s,3,1553683878,248.06715,sub08_Luoluo-s2_part2_80_80,8,redleft-greenright,1,0,2,true
1,0,1,1,612.4,sub08_Luoluo,264,s2_part2,20,s,3,1553683878,250.6086,sub08_Luoluo-s2_part2_80_80,8,redleft-greenright,0,1,2,true
0,1,1,0,931.3,sub08_Luoluo,265,s2_part2,20,s,3,1553683878,253.0251,sub08_Luoluo-s2_part2_80_80,8,redleft-greenright,0,0,2,true
1,0,1,1,642.3,sub08_Luoluo,266,s2_part2,20,s,3,1553683878,255.44155,sub08_Luoluo-s2_part2_80_80,8,redleft-greenright,0,1,2,false
0,1,1,0,753.3,sub08_Luoluo,267,s2_part2,20,s,3,1553683878,257.858,sub08_Luoluo-s2_part2_80_80,8,redleft-greenright,0,0,2,true
1,1,1,1,990.3,sub08_Luoluo,268,s2_part2,20,s,3,1553683878,260.39945,sub08_Luoluo-s2_part2_80_80,8,redleft-greenright,1,1,2,true
0,1,1,0,555.3,sub08_Luoluo,269,s2_part2,20,s,3,1553683878,262.9409,sub08_Luoluo-s2_part2_80_80,8,redleft-greenright,0,0,2,true
0,1,1,0,600.2,sub08_Luoluo,270,s2_part2,20,s,3,1553683878,264.9824,sub08_Luoluo-s2_part2_80_80,8,redleft-greenright,0,0,2,true
0,1,1,0,629.2,sub08_Luoluo,271,s2_part2,20,s,3,1553683878,267.52385,sub08_Luoluo-s2_part2_80_80,8,redleft-greenright,0,0,2,true
0,1,1,0,650.2,sub08_Luoluo,272,s2_part2,20,s,3,1553683878,270.0653,sub08_Luoluo-s2_part2_80_80,8,redleft-greenright,0,0,2,true
1,0,1,1,695.2,sub08_Luoluo,273,s2_part2,20,s,3,1553683878,272.60675,sub08_Luoluo-s2_part2_80_80,8,redleft-greenright,0,1,2,false
1,0,1,1,652.2,sub08_Luoluo,274,s2_part2,20,s,3,1553683878,275.1482,sub08_Luoluo-s2_part2_80_80,8,redleft-greenright,0,1,2,true
1,0,1,1,811.1,sub08_Luoluo,275,s2_part2,20,s,3,1553683878,277.0647,sub08_Luoluo-s2_part2_80_80,8,redleft-greenright,0,1,2,true
1,0,1,1,824.2,sub08_Luoluo,276,s2_part2,20,s,3,1553683878,279.60615,sub08_Luoluo-s2_part2_80_80,8,redleft-greenright,0,1,2,true
1,1,1,1,711.1,sub08_Luoluo,277,s2_part2,20,s,3,1553683878,282.0226,sub08_Luoluo-s2_part2_80_80,8,redleft-greenright,1,1,2,false
1,0,1,1,668.1,sub08_Luoluo,278,s2_part2,20,s,3,1553683878,284.56405,sub08_Luoluo-s2_part2_80_80,8,redleft-greenright,0,1,2,true
0,1,1,0,1009,sub08_Luoluo,279,s2_part2,20,s,3,1553683878,287.1055,sub08_Luoluo-s2_part2_80_80,8,redleft-greenright,0,0,2,true
0,1,1,0,582.1,sub08_Luoluo,280,s2_part2,20,s,3,1553683878,289.64695,sub08_Luoluo-s2_part2_80_80,8,redleft-greenright,0,0,2,true
1,0,1,1,693.1,sub08_Luoluo,281,s2_part2,20,s,4,1553683878,292.0634,sub08_Luoluo-s2_part2_80_80,8,redleft-greenright,0,1,2,true
0,1,1,0,602.1,sub08_Luoluo,282,s2_part2,20,s,4,1553683878,294.60485,sub08_Luoluo-s2_part2_80_80,8,redleft-greenright,0,0,2,true
1,0,1,1,687.1,sub08_Luoluo,283,s2_part2,20,s,4,1553683878,297.1463,sub08_Luoluo-s2_part2_80_80,8,redleft-greenright,0,1,2,true
1,0,1,1,646.1,sub08_Luoluo,284,s2_part2,20,s,4,1553683878,299.56275,sub08_Luoluo-s2_part2_80_80,8,redleft-greenright,0,1,2,true
0,1,1,0,553.2,sub08_Luoluo,285,s2_part2,20,s,4,1553683878,301.72925,sub08_Luoluo-s2_part2_80_80,8,redleft-greenright,0,0,2,false
1,0,1,1,607.9,sub08_Luoluo,286,s2_part2,20,s,4,1553683878,303.64575,sub08_Luoluo-s2_part2_80_80,8,redleft-greenright,0,1,2,true
1,0,1,1,942.8,sub08_Luoluo,287,s2_part2,20,s,4,1553683878,306.0622,sub08_Luoluo-s2_part2_80_80,8,redleft-greenright,0,1,2,true
1,0,0,0,847.9,sub08_Luoluo,288,s2_part2,20,s,4,1553683878,308.35365,sub08_Luoluo-s2_part2_80_80,8,redleft-greenright,0,1,2,true
1,0,1,1,564.8,sub08_Luoluo,289,s2_part2,20,s,4,1553683878,310.8951,sub08_Luoluo-s2_part2_80_80,8,redleft-greenright,0,1,2,false
1,0,1,1,946,sub08_Luoluo,290,s2_part2,20,s,4,1553683878,313.43655,sub08_Luoluo-s2_part2_80_80,8,redleft-greenright,0,1,2,true
0,1,1,0,632.8,sub08_Luoluo,291,s2_part2,20,s,4,1553683878,315.853,sub08_Luoluo-s2_part2_80_80,8,redleft-greenright,0,0,2,false
1,0,1,1,1191.8,sub08_Luoluo,292,s2_part2,20,s,4,1553683878,318.2695,sub08_Luoluo-s2_part2_80_80,8,redleft-greenright,0,1,2,true
0,1,1,0,626.7,sub08_Luoluo,293,s2_part2,20,s,4,1553683878,320.43595,sub08_Luoluo-s2_part2_80_80,8,redleft-greenright,0,0,2,true
0,1,1,0,895.7,sub08_Luoluo,294,s2_part2,20,s,4,1553683878,322.9774,sub08_Luoluo-s2_part2_80_80,8,redleft-greenright,0,0,2,true
0,0,1,0,1126.8,sub08_Luoluo,295,s2_part2,20,s,4,1553683878,325.39385,sub08_Luoluo-s2_part2_80_80,8,redleft-greenright,1,0,2,true
1,0,1,1,613.7,sub08_Luoluo,296,s2_part2,20,s,4,1553683878,327.81035,sub08_Luoluo-s2_part2_80_80,8,redleft-greenright,0,1,2,true
0,1,1,0,554.7,sub08_Luoluo,297,s2_part2,20,s,4,1553683878,330.3518,sub08_Luoluo-s2_part2_80_80,8,redleft-greenright,0,0,2,true
0,1,1,0,599.7,sub08_Luoluo,298,s2_part2,20,s,4,1553683878,332.89325,sub08_Luoluo-s2_part2_80_80,8,redleft-greenright,0,0,2,true
1,1,1,1,654.7,sub08_Luoluo,299,s2_part2,20,s,4,1553683878,335.3097,sub08_Luoluo-s2_part2_80_80,8,redleft-greenright,1,1,2,true
0,0,1,0,731.7,sub08_Luoluo,300,s2_part2,20,s,4,1553683878,337.85115,sub08_Luoluo-s2_part2_80_80,8,redleft-greenright,1,0,2,false
0,1,1,0,760.7,sub08_Luoluo,301,s2_part2,20,s,4,1553683878,340.3926,sub08_Luoluo-s2_part2_80_80,8,redleft-greenright,0,0,2,false
1,1,1,1,847.7,sub08_Luoluo,302,s2_part2,20,s,4,1553683878,342.80905,sub08_Luoluo-s2_part2_80_80,8,redleft-greenright,1,1,2,true
0,1,1,0,700.7,sub08_Luoluo,303,s2_part2,20,s,4,1553683878,345.3505,sub08_Luoluo-s2_part2_80_80,8,redleft-greenright,0,0,2,true
1,0,1,1,641.6,sub08_Luoluo,304,s2_part2,20,s,4,1553683878,347.89195,sub08_Luoluo-s2_part2_80_80,8,redleft-greenright,0,1,2,true
0,1,1,0,526.7,sub08_Luoluo,305,s2_part2,20,s,4,1553683878,350.4334,sub08_Luoluo-s2_part2_80_80,8,redleft-greenright,0,0,2,true
1,0,1,1,523.6,sub08_Luoluo,306,s2_part2,20,s,4,1553683878,352.4749,sub08_Luoluo-s2_part2_80_80,8,redleft-greenright,0,1,2,false
0,1,1,0,400.6,sub08_Luoluo,307,s2_part2,20,s,4,1553683878,355.01635,sub08_Luoluo-s2_part2_80_80,8,redleft-greenright,0,0,2,true
0,1,1,0,549.6,sub08_Luoluo,308,s2_part2,20,s,4,1553683878,357.5578,sub08_Luoluo-s2_part2_80_80,8,redleft-greenright,0,0,2,true
1,0,1,1,596.6,sub08_Luoluo,309,s2_part2,20,s,4,1553683878,359.97425,sub08_Luoluo-s2_part2_80_80,8,redleft-greenright,0,1,2,true
1,0,1,1,649.6,sub08_Luoluo,310,s2_part2,20,s,4,1553683878,362.5157,sub08_Luoluo-s2_part2_80_80,8,redleft-greenright,0,1,2,true
1,1,1,1,678.6,sub08_Luoluo,311,s2_part2,20,s,4,1553683878,365.05715,sub08_Luoluo-s2_part2_80_80,8,redleft-greenright,1,1,2,true
0,1,1,0,475.5,sub08_Luoluo,312,s2_part2,20,s,4,1553683878,367.5986,sub08_Luoluo-s2_part2_80_80,8,redleft-greenright,0,0,2,false
1,0,1,1,784.6,sub08_Luoluo,313,s2_part2,20,s,4,1553683878,370.14005,sub08_Luoluo-s2_part2_80_80,8,redleft-greenright,0,1,2,true
0,0,1,0,1133.6,sub08_Luoluo,314,s2_part2,20,s,4,1553683878,372.6815,sub08_Luoluo-s2_part2_80_80,8,redleft-greenright,1,0,2,true
0,1,1,0,668.6,sub08_Luoluo,315,s2_part2,20,s,4,1553683878,375.09795,sub08_Luoluo-s2_part2_80_80,8,redleft-greenright,0,0,2,true
0,1,1,0,749.5,sub08_Luoluo,316,s2_part2,20,s,4,1553683878,377.3894,sub08_Luoluo-s2_part2_80_80,8,redleft-greenright,0,0,2,true
1,1,1,1,772.4,sub08_Luoluo,317,s2_part2,20,s,4,1553683878,379.8059,sub08_Luoluo-s2_part2_80_80,8,redleft-greenright,1,1,2,true
1,0,1,1,721.4,sub08_Luoluo,318,s2_part2,20,s,4,1553683878,381.84735,sub08_Luoluo-s2_part2_80_80,8,redleft-greenright,0,1,2,false
0,0,1,0,1062.5,sub08_Luoluo,319,s2_part2,20,s,4,1553683878,384.3888,sub08_Luoluo-s2_part2_80_80,8,redleft-greenright,1,0,2,true
0,1,1,0,469.4,sub08_Luoluo,320,s2_part2,20,s,4,1553683878,386.8053,sub08_Luoluo-s2_part2_80_80,8,redleft-greenright,0,0,2,false
0,0,1,0,924.1,sub08_Luoluo,321,s2_part3,20,s,1,1553684752,0.214,sub08_Luoluo-s2_part3_40_120,8,redleft-greenright,1,0,3,true
0,1,1,0,697,sub08_Luoluo,322,s2_part3,20,s,1,1553684752,2.75545,sub08_Luoluo-s2_part3_40_120,8,redleft-greenright,0,0,3,true
1,0,1,1,630,sub08_Luoluo,323,s2_part3,20,s,1,1553684752,5.2969,sub08_Luoluo-s2_part3_40_120,8,redleft-greenright,0,1,3,true
0,1,1,0,658.9,sub08_Luoluo,324,s2_part3,20,s,1,1553684752,7.83835,sub08_Luoluo-s2_part3_40_120,8,redleft-greenright,0,0,3,true
1,0,1,1,664.1,sub08_Luoluo,325,s2_part3,20,s,1,1553684752,10.3798,sub08_Luoluo-s2_part3_40_120,8,redleft-greenright,0,1,3,false
1,1,1,1,806.9,sub08_Luoluo,326,s2_part3,20,s,1,1553684752,12.79625,sub08_Luoluo-s2_part3_40_120,8,redleft-greenright,1,1,3,true
1,0,1,1,848,sub08_Luoluo,327,s2_part3,20,s,1,1553684752,15.0877,sub08_Luoluo-s2_part3_40_120,8,redleft-greenright,0,1,3,true
0,1,1,0,589,sub08_Luoluo,328,s2_part3,20,s,1,1553684752,17.62915,sub08_Luoluo-s2_part3_40_120,8,redleft-greenright,0,0,3,false
0,1,0,1,1082.1,sub08_Luoluo,329,s2_part3,20,s,1,1553684752,20.1706,sub08_Luoluo-s2_part3_40_120,8,redleft-greenright,0,0,3,true
1,0,1,1,1238.9,sub08_Luoluo,330,s2_part3,20,s,1,1553684752,22.71205,sub08_Luoluo-s2_part3_40_120,8,redleft-greenright,0,1,3,true
0,1,1,0,524,sub08_Luoluo,331,s2_part3,20,s,1,1553684752,25.2535,sub08_Luoluo-s2_part3_40_120,8,redleft-greenright,0,0,3,true
0,0,1,0,1088.9,sub08_Luoluo,332,s2_part3,20,s,1,1553684752,27.79495,sub08_Luoluo-s2_part3_40_120,8,redleft-greenright,1,0,3,true
0,1,1,0,750,sub08_Luoluo,333,s2_part3,20,s,1,1553684752,30.3364,sub08_Luoluo-s2_part3_40_120,8,redleft-greenright,0,0,3,true
0,1,1,0,555,sub08_Luoluo,334,s2_part3,20,s,1,1553684752,32.87785,sub08_Luoluo-s2_part3_40_120,8,redleft-greenright,0,0,3,true
0,1,1,0,736,sub08_Luoluo,335,s2_part3,20,s,1,1553684752,35.4193,sub08_Luoluo-s2_part3_40_120,8,redleft-greenright,0,0,3,true
1,0,1,1,704.9,sub08_Luoluo,336,s2_part3,20,s,1,1553684752,37.7108,sub08_Luoluo-s2_part3_40_120,8,redleft-greenright,0,1,3,false
1,0,1,1,797.9,sub08_Luoluo,337,s2_part3,20,s,1,1553684752,40.25225,sub08_Luoluo-s2_part3_40_120,8,redleft-greenright,0,1,3,true
0,1,1,0,516.9,sub08_Luoluo,338,s2_part3,20,s,1,1553684752,42.6687,sub08_Luoluo-s2_part3_40_120,8,redleft-greenright,0,0,3,true
1,1,1,1,987.8,sub08_Luoluo,339,s2_part3,20,s,1,1553684752,45.08515,sub08_Luoluo-s2_part3_40_120,8,redleft-greenright,1,1,3,true
0,1,1,0,538.8,sub08_Luoluo,340,s2_part3,20,s,1,1553684752,47.5016,sub08_Luoluo-s2_part3_40_120,8,redleft-greenright,0,0,3,false
1,0,1,1,585.8,sub08_Luoluo,341,s2_part3,20,s,1,1553684752,49.91805,sub08_Luoluo-s2_part3_40_120,8,redleft-greenright,0,1,3,true
0,0,1,0,728.9,sub08_Luoluo,342,s2_part3,20,s,1,1553684752,51.83455,sub08_Luoluo-s2_part3_40_120,8,redleft-greenright,1,0,3,true
1,0,1,1,677.7,sub08_Luoluo,343,s2_part3,20,s,1,1553684752,53.87605,sub08_Luoluo-s2_part3_40_120,8,redleft-greenright,0,1,3,true
1,0,1,1,730.5,sub08_Luoluo,344,s2_part3,20,s,1,1553684752,55.91755,sub08_Luoluo-s2_part3_40_120,8,redleft-greenright,0,1,3,true
0,0,1,0,599.5,sub08_Luoluo,345,s2_part3,20,s,1,1553684752,58.459,sub08_Luoluo-s2_part3_40_120,8,redleft-greenright,1,0,3,true
0,1,1,0,620.5,sub08_Luoluo,346,s2_part3,20,s,1,1553684752,61.00045,sub08_Luoluo-s2_part3_40_120,8,redleft-greenright,0,0,3,false
1,0,1,1,599.5,sub08_Luoluo,347,s2_part3,20,s,1,1553684752,63.16695,sub08_Luoluo-s2_part3_40_120,8,redleft-greenright,0,1,3,false
0,1,1,0,614.5,sub08_Luoluo,348,s2_part3,20,s,1,1553684752,65.5834,sub08_Luoluo-s2_part3_40_120,8,redleft-greenright,0,0,3,true
1,0,1,1,517.4,sub08_Luoluo,349,s2_part3,20,s,1,1553684752,67.99985,sub08_Luoluo-s2_part3_40_120,8,redleft-greenright,0,1,3,true
1,0,1,1,780.6,sub08_Luoluo,350,s2_part3,20,s,1,1553684752,70.4163,sub08_Luoluo-s2_part3_40_120,8,redleft-greenright,0,1,3,true
0,1,1,0,475.4,sub08_Luoluo,351,s2_part3,20,s,1,1553684752,72.83275,sub08_Luoluo-s2_part3_40_120,8,redleft-greenright,0,0,3,true
0,1,1,0,640.4,sub08_Luoluo,352,s2_part3,20,s,1,1553684752,75.3742,sub08_Luoluo-s2_part3_40_120,8,redleft-greenright,0,0,3,true
1,0,1,1,887.5,sub08_Luoluo,353,s2_part3,20,s,1,1553684752,77.7907,sub08_Luoluo-s2_part3_40_120,8,redleft-greenright,0,1,3,true
1,0,1,1,1252.4,sub08_Luoluo,354,s2_part3,20,s,1,1553684752,80.33215,sub08_Luoluo-s2_part3_40_120,8,redleft-greenright,0,1,3,true
1,0,1,1,777.5,sub08_Luoluo,355,s2_part3,20,s,1,1553684752,82.8736,sub08_Luoluo-s2_part3_40_120,8,redleft-greenright,0,1,3,true
0,1,1,0,534.5,sub08_Luoluo,356,s2_part3,20,s,1,1553684752,85.41505,sub08_Luoluo-s2_part3_40_120,8,redleft-greenright,0,0,3,false
1,1,1,1,853.4,sub08_Luoluo,357,s2_part3,20,s,1,1553684752,87.8315,sub08_Luoluo-s2_part3_40_120,8,redleft-greenright,1,1,3,true
1,1,1,1,786.3,sub08_Luoluo,358,s2_part3,20,s,1,1553684752,90.37295,sub08_Luoluo-s2_part3_40_120,8,redleft-greenright,1,1,3,true
1,0,1,1,677.4,sub08_Luoluo,359,s2_part3,20,s,1,1553684752,92.5394,sub08_Luoluo-s2_part3_40_120,8,redleft-greenright,0,1,3,false
0,1,1,0,458.3,sub08_Luoluo,360,s2_part3,20,s,1,1553684752,95.08085,sub08_Luoluo-s2_part3_40_120,8,redleft-greenright,0,0,3,true
0,0,1,0,705.3,sub08_Luoluo,361,s2_part3,80,s,2,1553684752,97.49735,sub08_Luoluo-s2_part3_40_120,8,redleft-greenright,1,0,3,true
0,0,1,0,690.2,sub08_Luoluo,362,s2_part3,80,s,2,1553684752,99.7888,sub08_Luoluo-s2_part3_40_120,8,redleft-greenright,1,0,3,true
0,0,1,0,551.3,sub08_Luoluo,363,s2_part3,80,s,2,1553684752,102.33025,sub08_Luoluo-s2_part3_40_120,8,redleft-greenright,1,0,3,true
1,1,1,1,668.3,sub08_Luoluo,364,s2_part3,80,s,2,1553684752,104.8717,sub08_Luoluo-s2_part3_40_120,8,redleft-greenright,1,1,3,false
0,0,1,0,659.3,sub08_Luoluo,365,s2_part3,80,s,2,1553684752,107.28815,sub08_Luoluo-s2_part3_40_120,8,redleft-greenright,1,0,3,false
1,1,1,1,672.3,sub08_Luoluo,366,s2_part3,80,s,2,1553684752,109.8296,sub08_Luoluo-s2_part3_40_120,8,redleft-greenright,1,1,3,true
1,1,1,1,885.2,sub08_Luoluo,367,s2_part3,80,s,2,1553684752,112.37105,sub08_Luoluo-s2_part3_40_120,8,redleft-greenright,1,1,3,true
1,0,1,1,970.2,sub08_Luoluo,368,s2_part3,80,s,2,1553684752,114.9125,sub08_Luoluo-s2_part3_40_120,8,redleft-greenright,0,1,3,true
1,1,1,1,703.3,sub08_Luoluo,369,s2_part3,80,s,2,1553684752,117.45395,sub08_Luoluo-s2_part3_40_120,8,redleft-greenright,1,1,3,true
0,0,1,0,640.4,sub08_Luoluo,370,s2_part3,80,s,2,1553684752,119.7454,sub08_Luoluo-s2_part3_40_120,8,redleft-greenright,1,0,3,false
1,0,1,1,653.2,sub08_Luoluo,371,s2_part3,80,s,2,1553684752,122.28685,sub08_Luoluo-s2_part3_40_120,8,redleft-greenright,0,1,3,true
1,0,1,1,712.2,sub08_Luoluo,372,s2_part3,80,s,2,1553684752,124.45335,sub08_Luoluo-s2_part3_40_120,8,redleft-greenright,0,1,3,true
1,1,1,1,647.1,sub08_Luoluo,373,s2_part3,80,s,2,1553684752,126.8698,sub08_Luoluo-s2_part3_40_120,8,redleft-greenright,1,1,3,false
0,0,1,0,876.2,sub08_Luoluo,374,s2_part3,80,s,2,1553684752,129.41125,sub08_Luoluo-s2_part3_40_120,8,redleft-greenright,1,0,3,true
0,0,1,0,1209.3,sub08_Luoluo,375,s2_part3,80,s,2,1553684752,131.9527,sub08_Luoluo-s2_part3_40_120,8,redleft-greenright,1,0,3,true
0,0,1,0,680.1,sub08_Luoluo,376,s2_part3,80,s,2,1553684752,134.36915,sub08_Luoluo-s2_part3_40_120,8,redleft-greenright,1,0,3,true
0,0,1,0,517.1,sub08_Luoluo,377,s2_part3,80,s,2,1553684752,136.41065,sub08_Luoluo-s2_part3_40_120,8,redleft-greenright,1,0,3,true
0,1,1,0,722,sub08_Luoluo,378,s2_part3,80,s,2,1553684752,138.9521,sub08_Luoluo-s2_part3_40_120,8,redleft-greenright,0,0,3,true
0,0,1,0,631.1,sub08_Luoluo,379,s2_part3,80,s,2,1553684752,141.49355,sub08_Luoluo-s2_part3_40_120,8,redleft-greenright,1,0,3,true
0,1,1,0,540,sub08_Luoluo,380,s2_part3,80,s,2,1553684752,144.035,sub08_Luoluo-s2_part3_40_120,8,redleft-greenright,0,0,3,false
1,1,1,1,729,sub08_Luoluo,381,s2_part3,80,s,2,1553684752,146.57645,sub08_Luoluo-s2_part3_40_120,8,redleft-greenright,1,1,3,true
0,1,1,0,744,sub08_Luoluo,382,s2_part3,80,s,2,1553684752,148.9929,sub08_Luoluo-s2_part3_40_120,8,redleft-greenright,0,0,3,true
0,0,1,0,650.9,sub08_Luoluo,383,s2_part3,80,s,2,1553684752,151.1594,sub08_Luoluo-s2_part3_40_120,8,redleft-greenright,1,0,3,false
1,1,1,1,714,sub08_Luoluo,384,s2_part3,80,s,2,1553684752,153.57585,sub08_Luoluo-s2_part3_40_120,8,redleft-greenright,1,1,3,true
1,1,1,1,672.9,sub08_Luoluo,385,s2_part3,80,s,2,1553684752,155.49235,sub08_Luoluo-s2_part3_40_120,8,redleft-greenright,1,1,3,true
1,1,1,1,629.9,sub08_Luoluo,386,s2_part3,80,s,2,1553684752,158.0338,sub08_Luoluo-s2_part3_40_120,8,redleft-greenright,1,1,3,true
0,0,1,0,580.9,sub08_Luoluo,387,s2_part3,80,s,2,1553684752,160.45025,sub08_Luoluo-s2_part3_40_120,8,redleft-greenright,1,0,3,true
1,1,1,1,571.8,sub08_Luoluo,388,s2_part3,80,s,2,1553684752,162.86675,sub08_Luoluo-s2_part3_40_120,8,redleft-greenright,1,1,3,false
1,1,1,1,616.9,sub08_Luoluo,389,s2_part3,80,s,2,1553684752,165.4082,sub08_Luoluo-s2_part3_40_120,8,redleft-greenright,1,1,3,true
0,0,1,0,551.8,sub08_Luoluo,390,s2_part3,80,s,2,1553684752,167.82465,sub08_Luoluo-s2_part3_40_120,8,redleft-greenright,1,0,3,false
0,0,1,0,700.8,sub08_Luoluo,391,s2_part3,80,s,2,1553684752,170.3661,sub08_Luoluo-s2_part3_40_120,8,redleft-greenright,1,0,3,true
1,1,1,1,609.8,sub08_Luoluo,392,s2_part3,80,s,2,1553684752,172.90755,sub08_Luoluo-s2_part3_40_120,8,redleft-greenright,1,1,3,true
1,0,1,1,838.7,sub08_Luoluo,393,s2_part3,80,s,2,1553684752,174.949,sub08_Luoluo-s2_part3_40_120,8,redleft-greenright,0,1,3,true
1,1,1,1,691.8,sub08_Luoluo,394,s2_part3,80,s,2,1553684752,177.49045,sub08_Luoluo-s2_part3_40_120,8,redleft-greenright,1,1,3,true
0,0,1,0,658.6,sub08_Luoluo,395,s2_part3,80,s,2,1553684752,179.90695,sub08_Luoluo-s2_part3_40_120,8,redleft-greenright,1,0,3,true
1,1,1,1,681.7,sub08_Luoluo,396,s2_part3,80,s,2,1553684752,182.3234,sub08_Luoluo-s2_part3_40_120,8,redleft-greenright,1,1,3,true
1,1,1,1,558.9,sub08_Luoluo,397,s2_part3,80,s,2,1553684752,184.86485,sub08_Luoluo-s2_part3_40_120,8,redleft-greenright,1,1,3,true
1,1,1,1,637.7,sub08_Luoluo,398,s2_part3,80,s,2,1553684752,187.2813,sub08_Luoluo-s2_part3_40_120,8,redleft-greenright,1,1,3,true
0,0,1,0,492.7,sub08_Luoluo,399,s2_part3,80,s,2,1553684752,189.69775,sub08_Luoluo-s2_part3_40_120,8,redleft-greenright,1,0,3,false
0,1,1,0,705.7,sub08_Luoluo,400,s2_part3,80,s,2,1553684752,192.2392,sub08_Luoluo-s2_part3_40_120,8,redleft-greenright,0,0,3,true
0,0,1,0,646.8,sub08_Luoluo,401,s2_part3,80,s,3,1553684752,194.78065,sub08_Luoluo-s2_part3_40_120,8,redleft-greenright,1,0,3,true
1,1,1,1,643.6,sub08_Luoluo,402,s2_part3,80,s,3,1553684752,197.3221,sub08_Luoluo-s2_part3_40_120,8,redleft-greenright,1,1,3,false
0,0,1,0,474.8,sub08_Luoluo,403,s2_part3,80,s,3,1553684752,199.73855,sub08_Luoluo-s2_part3_40_120,8,redleft-greenright,1,0,3,true
0,0,1,0,713.8,sub08_Luoluo,404,s2_part3,80,s,3,1553684752,202.155,sub08_Luoluo-s2_part3_40_120,8,redleft-greenright,1,0,3,true
1,1,1,1,606.6,sub08_Luoluo,405,s2_part3,80,s,3,1553684752,204.69645,sub08_Luoluo-s2_part3_40_120,8,redleft-greenright,1,1,3,true
0,0,1,0,597.6,sub08_Luoluo,406,s2_part3,80,s,3,1553684752,207.11295,sub08_Luoluo-s2_part3_40_120,8,redleft-greenright,1,0,3,true
1,1,1,1,588.6,sub08_Luoluo,407,s2_part3,80,s,3,1553684752,209.5294,sub08_Luoluo-s2_part3_40_120,8,redleft-greenright,1,1,3,true
1,0,1,1,689.5,sub08_Luoluo,408,s2_part3,80,s,3,1553684752,212.07085,sub08_Luoluo-s2_part3_40_120,8,redleft-greenright,0,1,3,true
1,1,1,1,594.5,sub08_Luoluo,409,s2_part3,80,s,3,1553684752,214.3623,sub08_Luoluo-s2_part3_40_120,8,redleft-greenright,1,1,3,true
0,0,1,0,711.5,sub08_Luoluo,410,s2_part3,80,s,3,1553684752,216.4038,sub08_Luoluo-s2_part3_40_120,8,redleft-greenright,1,0,3,false
1,1,1,1,742.5,sub08_Luoluo,411,s2_part3,80,s,3,1553684752,218.82025,sub08_Luoluo-s2_part3_40_120,8,redleft-greenright,1,1,3,false
1,1,1,1,667.4,sub08_Luoluo,412,s2_part3,80,s,3,1553684752,221.3617,sub08_Luoluo-s2_part3_40_120,8,redleft-greenright,1,1,3,true
0,1,1,0,752.5,sub08_Luoluo,413,s2_part3,80,s,3,1553684752,223.90315,sub08_Luoluo-s2_part3_40_120,8,redleft-greenright,0,0,3,true
1,0,1,1,605.6,sub08_Luoluo,414,s2_part3,80,s,3,1553684752,226.4446,sub08_Luoluo-s2_part3_40_120,8,redleft-greenright,0,1,3,true
1,1,1,1,764.5,sub08_Luoluo,415,s2_part3,80,s,3,1553684752,228.86105,sub08_Luoluo-s2_part3_40_120,8,redleft-greenright,1,1,3,true
0,0,1,0,585.5,sub08_Luoluo,416,s2_part3,80,s,3,1553684752,231.4025,sub08_Luoluo-s2_part3_40_120,8,redleft-greenright,1,0,3,false
1,1,1,1,792.4,sub08_Luoluo,417,s2_part3,80,s,3,1553684752,233.819,sub08_Luoluo-s2_part3_40_120,8,redleft-greenright,1,1,3,true
1,0,1,1,613.4,sub08_Luoluo,418,s2_part3,80,s,3,1553684752,236.3604,sub08_Luoluo-s2_part3_40_120,8,redleft-greenright,0,1,3,true
0,0,1,0,650.4,sub08_Luoluo,419,s2_part3,80,s,3,1553684752,238.90185,sub08_Luoluo-s2_part3_40_120,8,redleft-greenright,1,0,3,true
0,1,1,0,705.4,sub08_Luoluo,420,s2_part3,80,s,3,1553684752,241.31835,sub08_Luoluo-s2_part3_40_120,8,redleft-greenright,0,0,3,false
1,1,1,1,806.3,sub08_Luoluo,421,s2_part3,80,s,3,1553684752,243.8598,sub08_Luoluo-s2_part3_40_120,8,redleft-greenright,1,1,3,true
1,1,0,0,691.4,sub08_Luoluo,422,s2_part3,80,s,3,1553684752,246.40125,sub08_Luoluo-s2_part3_40_120,8,redleft-greenright,1,1,3,true
0,0,1,0,736.3,sub08_Luoluo,423,s2_part3,80,s,3,1553684752,248.9427,sub08_Luoluo-s2_part3_40_120,8,redleft-greenright,1,0,3,false
0,0,1,0,717.4,sub08_Luoluo,424,s2_part3,80,s,3,1553684752,251.48415,sub08_Luoluo-s2_part3_40_120,8,redleft-greenright,1,0,3,true
1,1,1,1,508.3,sub08_Luoluo,425,s2_part3,80,s,3,1553684752,253.9006,sub08_Luoluo-s2_part3_40_120,8,redleft-greenright,1,1,3,true
0,1,1,0,587.5,sub08_Luoluo,426,s2_part3,80,s,3,1553684752,256.31705,sub08_Luoluo-s2_part3_40_120,8,redleft-greenright,0,0,3,true
0,1,1,0,696.4,sub08_Luoluo,427,s2_part3,80,s,3,1553684752,258.8585,sub08_Luoluo-s2_part3_40_120,8,redleft-greenright,0,0,3,true
0,0,1,0,901.4,sub08_Luoluo,428,s2_part3,80,s,3,1553684752,261.39995,sub08_Luoluo-s2_part3_40_120,8,redleft-greenright,1,0,3,true
0,0,1,0,602.3,sub08_Luoluo,429,s2_part3,80,s,3,1553684752,263.9414,sub08_Luoluo-s2_part3_40_120,8,redleft-greenright,1,0,3,true
1,1,1,1,659.4,sub08_Luoluo,430,s2_part3,80,s,3,1553684752,266.23285,sub08_Luoluo-s2_part3_40_120,8,redleft-greenright,1,1,3,false
1,0,1,1,608.3,sub08_Luoluo,431,s2_part3,80,s,3,1553684752,268.7743,sub08_Luoluo-s2_part3_40_120,8,redleft-greenright,0,1,3,true
1,1,1,1,709.3,sub08_Luoluo,432,s2_part3,80,s,3,1553684752,271.31575,sub08_Luoluo-s2_part3_40_120,8,redleft-greenright,1,1,3,true
0,0,1,0,514.4,sub08_Luoluo,433,s2_part3,80,s,3,1553684752,273.8572,sub08_Luoluo-s2_part3_40_120,8,redleft-greenright,1,0,3,false
0,0,1,0,615.3,sub08_Luoluo,434,s2_part3,80,s,3,1553684752,276.39865,sub08_Luoluo-s2_part3_40_120,8,redleft-greenright,1,0,3,true
1,1,1,1,598.3,sub08_Luoluo,435,s2_part3,80,s,3,1553684752,278.31515,sub08_Luoluo-s2_part3_40_120,8,redleft-greenright,1,1,3,true
0,0,1,0,531.1,sub08_Luoluo,436,s2_part3,80,s,3,1553684752,280.35665,sub08_Luoluo-s2_part3_40_120,8,redleft-greenright,1,0,3,true
1,1,1,1,458.2,sub08_Luoluo,437,s2_part3,80,s,3,1553684752,282.7731,sub08_Luoluo-s2_part3_40_120,8,redleft-greenright,1,1,3,true
0,0,1,0,453,sub08_Luoluo,438,s2_part3,80,s,3,1553684752,284.9396,sub08_Luoluo-s2_part3_40_120,8,redleft-greenright,1,0,3,true
0,0,1,0,602.1,sub08_Luoluo,439,s2_part3,80,s,3,1553684752,287.48105,sub08_Luoluo-s2_part3_40_120,8,redleft-greenright,1,0,3,true
1,1,1,1,509,sub08_Luoluo,440,s2_part3,80,s,3,1553684752,289.6475,sub08_Luoluo-s2_part3_40_120,8,redleft-greenright,1,1,3,false
0,1,1,0,644,sub08_Luoluo,441,s2_part3,80,s,4,1553684752,292.064,sub08_Luoluo-s2_part3_40_120,8,redleft-greenright,0,0,3,true
0,0,1,0,617,sub08_Luoluo,442,s2_part3,80,s,4,1553684752,294.60545,sub08_Luoluo-s2_part3_40_120,8,redleft-greenright,1,0,3,true
1,1,1,1,642,sub08_Luoluo,443,s2_part3,80,s,4,1553684752,296.8969,sub08_Luoluo-s2_part3_40_120,8,redleft-greenright,1,1,3,true
1,1,1,1,559,sub08_Luoluo,444,s2_part3,80,s,4,1553684752,299.43835,sub08_Luoluo-s2_part3_40_120,8,redleft-greenright,1,1,3,true
0,0,1,0,510,sub08_Luoluo,445,s2_part3,80,s,4,1553684752,301.8548,sub08_Luoluo-s2_part3_40_120,8,redleft-greenright,1,0,3,false
0,0,1,0,674.9,sub08_Luoluo,446,s2_part3,80,s,4,1553684752,304.39625,sub08_Luoluo-s2_part3_40_120,8,redleft-greenright,1,0,3,true
0,0,1,0,536,sub08_Luoluo,447,s2_part3,80,s,4,1553684752,306.9377,sub08_Luoluo-s2_part3_40_120,8,redleft-greenright,1,0,3,true
1,1,1,1,829,sub08_Luoluo,448,s2_part3,80,s,4,1553684752,309.47915,sub08_Luoluo-s2_part3_40_120,8,redleft-greenright,1,1,3,false
0,0,1,0,506,sub08_Luoluo,449,s2_part3,80,s,4,1553684752,312.0206,sub08_Luoluo-s2_part3_40_120,8,redleft-greenright,1,0,3,true
1,1,1,1,498.9,sub08_Luoluo,450,s2_part3,80,s,4,1553684752,314.3121,sub08_Luoluo-s2_part3_40_120,8,redleft-greenright,1,1,3,true
0,1,1,0,591.9,sub08_Luoluo,451,s2_part3,80,s,4,1553684752,316.85355,sub08_Luoluo-s2_part3_40_120,8,redleft-greenright,0,0,3,true
0,0,1,0,636.9,sub08_Luoluo,452,s2_part3,80,s,4,1553684752,319.395,sub08_Luoluo-s2_part3_40_120,8,redleft-greenright,1,0,3,true
0,0,1,0,499.9,sub08_Luoluo,453,s2_part3,80,s,4,1553684752,321.81145,sub08_Luoluo-s2_part3_40_120,8,redleft-greenright,1,0,3,true
1,1,1,1,714.8,sub08_Luoluo,454,s2_part3,80,s,4,1553684752,324.2279,sub08_Luoluo-s2_part3_40_120,8,redleft-greenright,1,1,3,true
1,1,1,1,770,sub08_Luoluo,455,s2_part3,80,s,4,1553684752,326.64435,sub08_Luoluo-s2_part3_40_120,8,redleft-greenright,1,1,3,true
1,1,1,1,608.8,sub08_Luoluo,456,s2_part3,80,s,4,1553684752,329.0608,sub08_Luoluo-s2_part3_40_120,8,redleft-greenright,1,1,3,true
1,0,1,1,741.8,sub08_Luoluo,457,s2_part3,80,s,4,1553684752,331.60225,sub08_Luoluo-s2_part3_40_120,8,redleft-greenright,0,1,3,false
1,1,1,1,756.8,sub08_Luoluo,458,s2_part3,80,s,4,1553684752,334.0187,sub08_Luoluo-s2_part3_40_120,8,redleft-greenright,1,1,3,true
1,1,1,1,515.8,sub08_Luoluo,459,s2_part3,80,s,4,1553684752,336.4352,sub08_Luoluo-s2_part3_40_120,8,redleft-greenright,1,1,3,true
0,0,1,0,504.9,sub08_Luoluo,460,s2_part3,80,s,4,1553684752,338.97665,sub08_Luoluo-s2_part3_40_120,8,redleft-greenright,1,0,3,true
1,1,1,1,527.7,sub08_Luoluo,461,s2_part3,80,s,4,1553684752,341.3931,sub08_Luoluo-s2_part3_40_120,8,redleft-greenright,1,1,3,false
1,0,1,1,692.7,sub08_Luoluo,462,s2_part3,80,s,4,1553684752,343.93455,sub08_Luoluo-s2_part3_40_120,8,redleft-greenright,0,1,3,false
0,0,1,0,809.8,sub08_Luoluo,463,s2_part3,80,s,4,1553684752,346.476,sub08_Luoluo-s2_part3_40_120,8,redleft-greenright,1,0,3,true
0,0,1,0,1542.8,sub08_Luoluo,464,s2_part3,80,s,4,1553684752,349.01745,sub08_Luoluo-s2_part3_40_120,8,redleft-greenright,1,0,3,true
0,0,1,0,661.8,sub08_Luoluo,465,s2_part3,80,s,4,1553684752,351.4339,sub08_Luoluo-s2_part3_40_120,8,redleft-greenright,1,0,3,true
0,0,1,0,892.7,sub08_Luoluo,466,s2_part3,80,s,4,1553684752,353.85035,sub08_Luoluo-s2_part3_40_120,8,redleft-greenright,1,0,3,true
1,1,1,1,491.7,sub08_Luoluo,467,s2_part3,80,s,4,1553684752,356.2668,sub08_Luoluo-s2_part3_40_120,8,redleft-greenright,1,1,3,false
0,0,1,0,776.7,sub08_Luoluo,468,s2_part3,80,s,4,1553684752,358.80825,sub08_Luoluo-s2_part3_40_120,8,redleft-greenright,1,0,3,false
0,0,1,0,619.6,sub08_Luoluo,469,s2_part3,80,s,4,1553684752,360.97475,sub08_Luoluo-s2_part3_40_120,8,redleft-greenright,1,0,3,true
1,1,1,1,554.7,sub08_Luoluo,470,s2_part3,80,s,4,1553684752,363.3912,sub08_Luoluo-s2_part3_40_120,8,redleft-greenright,1,1,3,true
1,0,1,1,749.6,sub08_Luoluo,471,s2_part3,80,s,4,1553684752,365.5577,sub08_Luoluo-s2_part3_40_120,8,redleft-greenright,0,1,3,true
1,0,1,1,682.6,sub08_Luoluo,472,s2_part3,80,s,4,1553684752,368.09915,sub08_Luoluo-s2_part3_40_120,8,redleft-greenright,0,1,3,true
1,1,1,1,671.5,sub08_Luoluo,473,s2_part3,80,s,4,1553684752,370.6406,sub08_Luoluo-s2_part3_40_120,8,redleft-greenright,1,1,3,true
1,1,1,1,588.6,sub08_Luoluo,474,s2_part3,80,s,4,1553684752,373.18205,sub08_Luoluo-s2_part3_40_120,8,redleft-greenright,1,1,3,true
1,1,1,1,649.5,sub08_Luoluo,475,s2_part3,80,s,4,1553684752,375.22355,sub08_Luoluo-s2_part3_40_120,8,redleft-greenright,1,1,3,true
0,0,1,0,558.4,sub08_Luoluo,476,s2_part3,80,s,4,1553684752,377.765,sub08_Luoluo-s2_part3_40_120,8,redleft-greenright,1,0,3,false
1,1,1,1,531.5,sub08_Luoluo,477,s2_part3,80,s,4,1553684752,380.3064,sub08_Luoluo-s2_part3_40_120,8,redleft-greenright,1,1,3,true
0,0,1,0,490.5,sub08_Luoluo,478,s2_part3,80,s,4,1553684752,382.2229,sub08_Luoluo-s2_part3_40_120,8,redleft-greenright,1,0,3,true
0,1,1,0,599.3,sub08_Luoluo,479,s2_part3,80,s,4,1553684752,384.2644,sub08_Luoluo-s2_part3_40_120,8,redleft-greenright,0,0,3,false
0,1,1,0,580.3,sub08_Luoluo,480,s2_part3,80,s,4,1553684752,386.80585,sub08_Luoluo-s2_part3_40_120,8,redleft-greenright,0,0,3,true
1,1,1,1,1063.8,sub08_Luoluo,481,v_80,80,v,1,1553685670,0.2201,sub08_Luoluo-v_80,8,redleft-greenright,1,1,4,true
0,0,1,0,582.8,sub08_Luoluo,482,v_80,80,v,1,1553685670,2.63655,sub08_Luoluo-v_80,8,redleft-greenright,1,0,4,true
1,1,1,1,635.8,sub08_Luoluo,483,v_80,80,v,1,1553685670,5.178,sub08_Luoluo-v_80,8,redleft-greenright,1,1,4,true
0,1,1,0,648.8,sub08_Luoluo,484,v_80,80,v,1,1553685670,7.71945,sub08_Luoluo-v_80,8,redleft-greenright,0,0,4,true
1,1,1,1,537.7,sub08_Luoluo,485,v_80,80,v,1,1553685670,10.01095,sub08_Luoluo-v_80,8,redleft-greenright,1,1,4,true
1,1,0,0,670.9,sub08_Luoluo,486,v_80,80,v,1,1553685670,12.5524,sub08_Luoluo-v_80,8,redleft-greenright,1,1,4,true
1,0,1,1,697.6,sub08_Luoluo,487,v_80,80,v,1,1553685670,14.71885,sub08_Luoluo-v_80,8,redleft-greenright,0,1,4,false
0,0,1,0,568.7,sub08_Luoluo,488,v_80,80,v,1,1553685670,17.1353,sub08_Luoluo-v_80,8,redleft-greenright,1,0,4,true
1,1,1,1,743.7,sub08_Luoluo,489,v_80,80,v,1,1553685670,19.55175,sub08_Luoluo-v_80,8,redleft-greenright,1,1,4,false
0,0,1,0,620.6,sub08_Luoluo,490,v_80,80,v,1,1553685670,22.0932,sub08_Luoluo-v_80,8,redleft-greenright,1,0,4,true
1,1,1,1,497.6,sub08_Luoluo,491,v_80,80,v,1,1553685670,24.63465,sub08_Luoluo-v_80,8,redleft-greenright,1,1,4,true
1,0,1,1,744.7,sub08_Luoluo,492,v_80,80,v,1,1553685670,27.05115,sub08_Luoluo-v_80,8,redleft-greenright,0,1,4,true
0,0,1,0,519.6,sub08_Luoluo,493,v_80,80,v,1,1553685670,29.4676,sub08_Luoluo-v_80,8,redleft-greenright,1,0,4,true
0,0,1,0,678.5,sub08_Luoluo,494,v_80,80,v,1,1553685670,31.88405,sub08_Luoluo-v_80,8,redleft-greenright,1,0,4,false
0,0,1,0,601.5,sub08_Luoluo,495,v_80,80,v,1,1553685670,34.05055,sub08_Luoluo-v_80,8,redleft-greenright,1,0,4,true
0,1,1,0,730.5,sub08_Luoluo,496,v_80,80,v,1,1553685670,36.342,sub08_Luoluo-v_80,8,redleft-greenright,0,0,4,false
1,1,1,1,777.5,sub08_Luoluo,497,v_80,80,v,1,1553685670,38.75845,sub08_Luoluo-v_80,8,redleft-greenright,1,1,4,true
0,1,1,0,638.6,sub08_Luoluo,498,v_80,80,v,1,1553685670,41.2999,sub08_Luoluo-v_80,8,redleft-greenright,0,0,4,true
0,0,1,0,693.5,sub08_Luoluo,499,v_80,80,v,1,1553685670,43.71635,sub08_Luoluo-v_80,8,redleft-greenright,1,0,4,true
0,1,1,0,650.5,sub08_Luoluo,500,v_80,80,v,1,1553685670,46.2578,sub08_Luoluo-v_80,8,redleft-greenright,0,0,4,true
0,0,1,0,457.5,sub08_Luoluo,501,v_80,80,v,1,1553685670,48.6743,sub08_Luoluo-v_80,8,redleft-greenright,1,0,4,true
0,0,1,0,576.5,sub08_Luoluo,502,v_80,80,v,1,1553685670,51.09075,sub08_Luoluo-v_80,8,redleft-greenright,1,0,4,true
1,1,1,1,869.6,sub08_Luoluo,503,v_80,80,v,1,1553685670,53.6322,sub08_Luoluo-v_80,8,redleft-greenright,1,1,4,true
0,0,1,0,554.4,sub08_Luoluo,504,v_80,80,v,1,1553685670,56.17365,sub08_Luoluo-v_80,8,redleft-greenright,1,0,4,false
0,0,1,0,607.4,sub08_Luoluo,505,v_80,80,v,1,1553685670,58.7151,sub08_Luoluo-v_80,8,redleft-greenright,1,0,4,true
0,0,1,0,556.3,sub08_Luoluo,506,v_80,80,v,1,1553685670,60.7566,sub08_Luoluo-v_80,8,redleft-greenright,1,0,4,true
0,0,1,0,529.4,sub08_Luoluo,507,v_80,80,v,1,1553685670,62.79805,sub08_Luoluo-v_80,8,redleft-greenright,1,0,4,true
1,1,1,1,630.4,sub08_Luoluo,508,v_80,80,v,1,1553685670,65.3395,sub08_Luoluo-v_80,8,redleft-greenright,1,1,4,false
1,1,1,1,603.4,sub08_Luoluo,509,v_80,80,v,1,1553685670,67.88095,sub08_Luoluo-v_80,8,redleft-greenright,1,1,4,true
1,0,1,1,794.2,sub08_Luoluo,510,v_80,80,v,1,1553685670,70.29745,sub08_Luoluo-v_80,8,redleft-greenright,0,1,4,true
0,0,1,0,543.3,sub08_Luoluo,511,v_80,80,v,1,1553685670,72.8389,sub08_Luoluo-v_80,8,redleft-greenright,1,0,4,true
1,1,1,1,622.2,sub08_Luoluo,512,v_80,80,v,1,1553685670,75.25535,sub08_Luoluo-v_80,8,redleft-greenright,1,1,4,true
1,1,1,1,747.3,sub08_Luoluo,513,v_80,80,v,1,1553685670,77.7968,sub08_Luoluo-v_80,8,redleft-greenright,1,1,4,true
0,0,1,0,568.4,sub08_Luoluo,514,v_80,80,v,1,1553685670,80.33825,sub08_Luoluo-v_80,8,redleft-greenright,1,0,4,false
1,1,1,1,549.2,sub08_Luoluo,515,v_80,80,v,1,1553685670,82.8797,sub08_Luoluo-v_80,8,redleft-greenright,1,1,4,true
1,1,1,1,642.2,sub08_Luoluo,516,v_80,80,v,1,1553685670,85.42115,sub08_Luoluo-v_80,8,redleft-greenright,1,1,4,true
1,0,1,1,657.1,sub08_Luoluo,517,v_80,80,v,1,1553685670,87.33765,sub08_Luoluo-v_80,8,redleft-greenright,0,1,4,true
1,1,1,1,550.2,sub08_Luoluo,518,v_80,80,v,1,1553685670,89.8791,sub08_Luoluo-v_80,8,redleft-greenright,1,1,4,true
0,0,1,0,507.1,sub08_Luoluo,519,v_80,80,v,1,1553685670,92.42055,sub08_Luoluo-v_80,8,redleft-greenright,1,0,4,true
1,1,1,1,504.1,sub08_Luoluo,520,v_80,80,v,1,1553685670,94.962,sub08_Luoluo-v_80,8,redleft-greenright,1,1,4,true
0,1,1,0,541.1,sub08_Luoluo,521,v_80,20,v,2,1553685670,97.50345,sub08_Luoluo-v_80,8,redleft-greenright,0,0,4,true
0,1,1,0,676.1,sub08_Luoluo,522,v_80,20,v,2,1553685670,99.9199,sub08_Luoluo-v_80,8,redleft-greenright,0,0,4,false
0,1,1,0,433.1,sub08_Luoluo,523,v_80,20,v,2,1553685670,102.46135,sub08_Luoluo-v_80,8,redleft-greenright,0,0,4,true
1,0,1,1,686.3,sub08_Luoluo,524,v_80,20,v,2,1553685670,105.0028,sub08_Luoluo-v_80,8,redleft-greenright,0,1,4,false
0,0,1,0,555.3,sub08_Luoluo,525,v_80,20,v,2,1553685670,107.54425,sub08_Luoluo-v_80,8,redleft-greenright,1,0,4,true
1,1,1,1,496.3,sub08_Luoluo,526,v_80,20,v,2,1553685670,110.0857,sub08_Luoluo-v_80,8,redleft-greenright,1,1,4,true
0,1,1,0,423.3,sub08_Luoluo,527,v_80,20,v,2,1553685670,112.50215,sub08_Luoluo-v_80,8,redleft-greenright,0,0,4,true
1,0,1,1,542,sub08_Luoluo,528,v_80,20,v,2,1553685670,114.9186,sub08_Luoluo-v_80,8,redleft-greenright,0,1,4,true
0,1,1,0,467.1,sub08_Luoluo,529,v_80,20,v,2,1553685670,117.46005,sub08_Luoluo-v_80,8,redleft-greenright,0,0,4,true
1,0,1,1,672.2,sub08_Luoluo,530,v_80,20,v,2,1553685670,120.0015,sub08_Luoluo-v_80,8,redleft-greenright,0,1,4,true
0,1,1,0,357.1,sub08_Luoluo,531,v_80,20,v,2,1553685670,122.54295,sub08_Luoluo-v_80,8,redleft-greenright,0,0,4,false
1,0,1,1,506.2,sub08_Luoluo,532,v_80,20,v,2,1553685670,125.0844,sub08_Luoluo-v_80,8,redleft-greenright,0,1,4,false
0,1,1,0,439.3,sub08_Luoluo,533,v_80,20,v,2,1553685670,127.62585,sub08_Luoluo-v_80,8,redleft-greenright,0,0,4,true
1,1,1,1,586,sub08_Luoluo,534,v_80,20,v,2,1553685670,129.79235,sub08_Luoluo-v_80,8,redleft-greenright,1,1,4,true
1,0,1,1,559.2,sub08_Luoluo,535,v_80,20,v,2,1553685670,132.33375,sub08_Luoluo-v_80,8,redleft-greenright,0,1,4,true
0,0,1,0,670,sub08_Luoluo,536,v_80,20,v,2,1553685670,134.75025,sub08_Luoluo-v_80,8,redleft-greenright,1,0,4,true
0,1,1,0,539,sub08_Luoluo,537,v_80,20,v,2,1553685670,137.2917,sub08_Luoluo-v_80,8,redleft-greenright,0,0,4,true
1,0,1,1,584,sub08_Luoluo,538,v_80,20,v,2,1553685670,139.83315,sub08_Luoluo-v_80,8,redleft-greenright,0,1,4,true
0,1,1,0,465,sub08_Luoluo,539,v_80,20,v,2,1553685670,142.1246,sub08_Luoluo-v_80,8,redleft-greenright,0,0,4,false
0,1,1,0,534,sub08_Luoluo,540,v_80,20,v,2,1553685670,144.66605,sub08_Luoluo-v_80,8,redleft-greenright,0,0,4,true
0,1,1,0,468.9,sub08_Luoluo,541,v_80,20,v,2,1553685670,147.0825,sub08_Luoluo-v_80,8,redleft-greenright,0,0,4,true
0,1,1,0,538.1,sub08_Luoluo,542,v_80,20,v,2,1553685670,149.62395,sub08_Luoluo-v_80,8,redleft-greenright,0,0,4,true
0,0,1,0,614.9,sub08_Luoluo,543,v_80,20,v,2,1553685670,152.1654,sub08_Luoluo-v_80,8,redleft-greenright,1,0,4,false
1,0,1,1,617.9,sub08_Luoluo,544,v_80,20,v,2,1553685670,154.3319,sub08_Luoluo-v_80,8,redleft-greenright,0,1,4,true
1,0,1,1,640.8,sub08_Luoluo,545,v_80,20,v,2,1553685670,156.74835,sub08_Luoluo-v_80,8,redleft-greenright,0,1,4,true
0,1,1,0,399.9,sub08_Luoluo,546,v_80,20,v,2,1553685670,159.1648,sub08_Luoluo-v_80,8,redleft-greenright,0,0,4,true
1,0,1,1,614.8,sub08_Luoluo,547,v_80,20,v,2,1553685670,161.0813,sub08_Luoluo-v_80,8,redleft-greenright,0,1,4,true
1,0,1,1,763.9,sub08_Luoluo,548,v_80,20,v,2,1553685670,163.62275,sub08_Luoluo-v_80,8,redleft-greenright,0,1,4,true
1,0,1,1,682.7,sub08_Luoluo,549,v_80,20,v,2,1553685670,166.0392,sub08_Luoluo-v_80,8,redleft-greenright,0,1,4,false
1,1,1,1,815.6,sub08_Luoluo,550,v_80,20,v,2,1553685670,168.0807,sub08_Luoluo-v_80,8,redleft-greenright,1,1,4,false
0,0,1,0,558.8,sub08_Luoluo,551,v_80,20,v,2,1553685670,170.49715,sub08_Luoluo-v_80,8,redleft-greenright,1,0,4,true
1,0,1,1,603.7,sub08_Luoluo,552,v_80,20,v,2,1553685670,173.0386,sub08_Luoluo-v_80,8,redleft-greenright,0,1,4,true
0,1,1,0,496.7,sub08_Luoluo,553,v_80,20,v,2,1553685670,175.58005,sub08_Luoluo-v_80,8,redleft-greenright,0,0,4,true
1,1,1,1,647.7,sub08_Luoluo,554,v_80,20,v,2,1553685670,177.99655,sub08_Luoluo-v_80,8,redleft-greenright,1,1,4,true
0,1,1,0,604.8,sub08_Luoluo,555,v_80,20,v,2,1553685670,180.53795,sub08_Luoluo-v_80,8,redleft-greenright,0,0,4,true
1,0,1,1,659.6,sub08_Luoluo,556,v_80,20,v,2,1553685670,182.95445,sub08_Luoluo-v_80,8,redleft-greenright,0,1,4,false
0,1,1,0,612.6,sub08_Luoluo,557,v_80,20,v,2,1553685670,185.2459,sub08_Luoluo-v_80,8,redleft-greenright,0,0,4,false
1,0,1,1,705.5,sub08_Luoluo,558,v_80,20,v,2,1553685670,187.78735,sub08_Luoluo-v_80,8,redleft-greenright,0,1,4,true
1,0,1,1,718.6,sub08_Luoluo,559,v_80,20,v,2,1553685670,190.3288,sub08_Luoluo-v_80,8,redleft-greenright,0,1,4,true
1,0,1,1,645.5,sub08_Luoluo,560,v_80,20,v,2,1553685670,192.74525,sub08_Luoluo-v_80,8,redleft-greenright,0,1,4,true
0,0,1,0,634.4,sub08_Luoluo,561,v_80,80,v,3,1553685670,194.78675,sub08_Luoluo-v_80,8,redleft-greenright,1,0,4,true
1,1,1,1,887.5,sub08_Luoluo,562,v_80,80,v,3,1553685670,197.3282,sub08_Luoluo-v_80,8,redleft-greenright,1,1,4,true
1,0,1,1,812.6,sub08_Luoluo,563,v_80,80,v,3,1553685670,199.3697,sub08_Luoluo-v_80,8,redleft-greenright,0,1,4,true
0,0,1,0,905.6,sub08_Luoluo,564,v_80,80,v,3,1553685670,201.91115,sub08_Luoluo-v_80,8,redleft-greenright,1,0,4,true
1,1,0,0,864.4,sub08_Luoluo,565,v_80,80,v,3,1553685670,204.3276,sub08_Luoluo-v_80,8,redleft-greenright,1,1,4,false
1,1,1,1,677.4,sub08_Luoluo,566,v_80,80,v,3,1553685670,206.86905,sub08_Luoluo-v_80,8,redleft-greenright,1,1,4,true
0,0,1,0,682.4,sub08_Luoluo,567,v_80,80,v,3,1553685670,209.4105,sub08_Luoluo-v_80,8,redleft-greenright,1,0,4,false
0,1,1,0,711.4,sub08_Luoluo,568,v_80,80,v,3,1553685670,211.95195,sub08_Luoluo-v_80,8,redleft-greenright,0,0,4,true
0,0,1,0,662.4,sub08_Luoluo,569,v_80,80,v,3,1553685670,214.3684,sub08_Luoluo-v_80,8,redleft-greenright,1,0,4,true
1,0,1,1,635.4,sub08_Luoluo,570,v_80,80,v,3,1553685670,216.90985,sub08_Luoluo-v_80,8,redleft-greenright,0,1,4,true
0,0,1,0,642.4,sub08_Luoluo,571,v_80,80,v,3,1553685670,219.3263,sub08_Luoluo-v_80,8,redleft-greenright,1,0,4,true
0,0,1,0,695.4,sub08_Luoluo,572,v_80,80,v,3,1553685670,221.86775,sub08_Luoluo-v_80,8,redleft-greenright,1,0,4,true
1,1,1,1,572.3,sub08_Luoluo,573,v_80,80,v,3,1553685670,224.4092,sub08_Luoluo-v_80,8,redleft-greenright,1,1,4,false
0,0,1,0,555.2,sub08_Luoluo,574,v_80,80,v,3,1553685670,226.82565,sub08_Luoluo-v_80,8,redleft-greenright,1,0,4,true
1,1,1,1,592.5,sub08_Luoluo,575,v_80,80,v,3,1553685670,229.3671,sub08_Luoluo-v_80,8,redleft-greenright,1,1,4,true
0,1,1,0,551.4,sub08_Luoluo,576,v_80,80,v,3,1553685670,231.7836,sub08_Luoluo-v_80,8,redleft-greenright,0,0,4,true
1,1,1,1,540.5,sub08_Luoluo,577,v_80,80,v,3,1553685670,234.32505,sub08_Luoluo-v_80,8,redleft-greenright,1,1,4,true
1,1,1,1,679.3,sub08_Luoluo,578,v_80,80,v,3,1553685670,236.4915,sub08_Luoluo-v_80,8,redleft-greenright,1,1,4,true
0,0,1,0,486.4,sub08_Luoluo,579,v_80,80,v,3,1553685670,238.90795,sub08_Luoluo-v_80,8,redleft-greenright,1,0,4,false
0,0,1,0,583.2,sub08_Luoluo,580,v_80,80,v,3,1553685670,241.19945,sub08_Luoluo-v_80,8,redleft-greenright,1,0,4,true
0,0,1,0,658.1,sub08_Luoluo,581,v_80,80,v,3,1553685670,243.3659,sub08_Luoluo-v_80,8,redleft-greenright,1,0,4,true
1,0,1,1,611.3,sub08_Luoluo,582,v_80,80,v,3,1553685670,245.6574,sub08_Luoluo-v_80,8,redleft-greenright,0,1,4,true
1,0,1,1,552.3,sub08_Luoluo,583,v_80,80,v,3,1553685670,247.6989,sub08_Luoluo-v_80,8,redleft-greenright,0,1,4,true
1,1,1,1,1053.1,sub08_Luoluo,584,v_80,80,v,3,1553685670,250.24035,sub08_Luoluo-v_80,8,redleft-greenright,1,1,4,false
1,1,1,1,674,sub08_Luoluo,585,v_80,80,v,3,1553685670,252.7818,sub08_Luoluo-v_80,8,redleft-greenright,1,1,4,true
1,1,1,1,599.1,sub08_Luoluo,586,v_80,80,v,3,1553685670,255.32325,sub08_Luoluo-v_80,8,redleft-greenright,1,1,4,true
0,1,1,0,614,sub08_Luoluo,587,v_80,80,v,3,1553685670,257.7397,sub08_Luoluo-v_80,8,redleft-greenright,0,0,4,true
0,0,1,0,581,sub08_Luoluo,588,v_80,80,v,3,1553685670,260.15615,sub08_Luoluo-v_80,8,redleft-greenright,1,0,4,false
0,0,1,0,474.2,sub08_Luoluo,589,v_80,80,v,3,1553685670,262.6976,sub08_Luoluo-v_80,8,redleft-greenright,1,0,4,true
0,0,1,0,505,sub08_Luoluo,590,v_80,80,v,3,1553685670,265.11405,sub08_Luoluo-v_80,8,redleft-greenright,1,0,4,true
1,1,1,1,638,sub08_Luoluo,591,v_80,80,v,3,1553685670,267.6555,sub08_Luoluo-v_80,8,redleft-greenright,1,1,4,true
0,0,1,0,708.9,sub08_Luoluo,592,v_80,80,v,3,1553685670,269.572,sub08_Luoluo-v_80,8,redleft-greenright,1,0,4,true
0,0,1,0,513.9,sub08_Luoluo,593,v_80,80,v,3,1553685670,272.11345,sub08_Luoluo-v_80,8,redleft-greenright,1,0,4,true
1,1,1,1,542.9,sub08_Luoluo,594,v_80,80,v,3,1553685670,274.6549,sub08_Luoluo-v_80,8,redleft-greenright,1,1,4,false
1,1,1,1,902,sub08_Luoluo,595,v_80,80,v,3,1553685670,277.07135,sub08_Luoluo-v_80,8,redleft-greenright,1,1,4,true
1,1,1,1,580.9,sub08_Luoluo,596,v_80,80,v,3,1553685670,279.4878,sub08_Luoluo-v_80,8,redleft-greenright,1,1,4,true
0,0,1,0,521.9,sub08_Luoluo,597,v_80,80,v,3,1553685670,282.02925,sub08_Luoluo-v_80,8,redleft-greenright,1,0,4,true
1,1,1,1,534.8,sub08_Luoluo,598,v_80,80,v,3,1553685670,284.5707,sub08_Luoluo-v_80,8,redleft-greenright,1,1,4,true
1,1,1,1,483.9,sub08_Luoluo,599,v_80,80,v,3,1553685670,287.11215,sub08_Luoluo-v_80,8,redleft-greenright,1,1,4,true
0,1,1,0,490.9,sub08_Luoluo,600,v_80,80,v,3,1553685670,289.52865,sub08_Luoluo-v_80,8,redleft-greenright,0,0,4,true
1,0,1,1,511.9,sub08_Luoluo,601,v_80,20,v,4,1553685670,292.0701,sub08_Luoluo-v_80,8,redleft-greenright,0,1,4,false
1,0,1,1,678.8,sub08_Luoluo,602,v_80,20,v,4,1553685670,294.48655,sub08_Luoluo-v_80,8,redleft-greenright,0,1,4,true
1,0,1,1,755.8,sub08_Luoluo,603,v_80,20,v,4,1553685670,297.028,sub08_Luoluo-v_80,8,redleft-greenright,0,1,4,true
1,0,1,1,603,sub08_Luoluo,604,v_80,20,v,4,1553685670,299.44445,sub08_Luoluo-v_80,8,redleft-greenright,0,1,4,true
0,1,1,0,603.9,sub08_Luoluo,605,v_80,20,v,4,1553685670,301.7359,sub08_Luoluo-v_80,8,redleft-greenright,0,0,4,false
0,1,1,0,946.9,sub08_Luoluo,606,v_80,20,v,4,1553685670,304.1524,sub08_Luoluo-v_80,8,redleft-greenright,0,0,4,true
0,1,1,0,487.8,sub08_Luoluo,607,v_80,20,v,4,1553685670,306.6938,sub08_Luoluo-v_80,8,redleft-greenright,0,0,4,true
0,1,1,0,646.7,sub08_Luoluo,608,v_80,20,v,4,1553685670,309.1103,sub08_Luoluo-v_80,8,redleft-greenright,0,0,4,true
1,0,1,1,539.8,sub08_Luoluo,609,v_80,20,v,4,1553685670,311.65175,sub08_Luoluo-v_80,8,redleft-greenright,0,1,4,true
1,0,1,1,658.9,sub08_Luoluo,610,v_80,20,v,4,1553685670,314.0682,sub08_Luoluo-v_80,8,redleft-greenright,0,1,4,true
0,0,1,0,775.7,sub08_Luoluo,611,v_80,20,v,4,1553685670,316.60965,sub08_Luoluo-v_80,8,redleft-greenright,1,0,4,true
0,1,1,0,532.7,sub08_Luoluo,612,v_80,20,v,4,1553685670,319.1511,sub08_Luoluo-v_80,8,redleft-greenright,0,0,4,true
1,1,1,1,967.7,sub08_Luoluo,613,v_80,20,v,4,1553685670,321.31755,sub08_Luoluo-v_80,8,redleft-greenright,1,1,4,true
0,1,1,0,636.8,sub08_Luoluo,614,v_80,20,v,4,1553685670,323.859,sub08_Luoluo-v_80,8,redleft-greenright,0,0,4,true
0,1,1,0,513.6,sub08_Luoluo,615,v_80,20,v,4,1553685670,326.40045,sub08_Luoluo-v_80,8,redleft-greenright,0,0,4,true
1,0,1,1,654.6,sub08_Luoluo,616,v_80,20,v,4,1553685670,328.9419,sub08_Luoluo-v_80,8,redleft-greenright,0,1,4,false
1,0,1,1,731.6,sub08_Luoluo,617,v_80,20,v,4,1553685670,331.48335,sub08_Luoluo-v_80,8,redleft-greenright,0,1,4,true
1,0,1,1,686.6,sub08_Luoluo,618,v_80,20,v,4,1553685670,333.64985,sub08_Luoluo-v_80,8,redleft-greenright,0,1,4,true
0,0,1,0,595.6,sub08_Luoluo,619,v_80,20,v,4,1553685670,336.1913,sub08_Luoluo-v_80,8,redleft-greenright,1,0,4,true
1,0,1,1,664.6,sub08_Luoluo,620,v_80,20,v,4,1553685670,338.73275,sub08_Luoluo-v_80,8,redleft-greenright,0,1,4,true
1,0,1,1,621.6,sub08_Luoluo,621,v_80,20,v,4,1553685670,341.2742,sub08_Luoluo-v_80,8,redleft-greenright,0,1,4,true
1,0,1,1,658.7,sub08_Luoluo,622,v_80,20,v,4,1553685670,343.81565,sub08_Luoluo-v_80,8,redleft-greenright,0,1,4,true
0,0,1,0,551.6,sub08_Luoluo,623,v_80,20,v,4,1553685670,346.3571,sub08_Luoluo-v_80,8,redleft-greenright,1,0,4,true
0,1,1,0,1148.7,sub08_Luoluo,624,v_80,20,v,4,1553685670,348.89855,sub08_Luoluo-v_80,8,redleft-greenright,0,0,4,false
0,0,1,0,971.7,sub08_Luoluo,625,v_80,20,v,4,1553685670,351.315,sub08_Luoluo-v_80,8,redleft-greenright,1,0,4,true
0,1,1,0,914.5,sub08_Luoluo,626,v_80,20,v,4,1553685670,353.2315,sub08_Luoluo-v_80,8,redleft-greenright,0,0,4,true
1,0,1,1,673.8,sub08_Luoluo,627,v_80,20,v,4,1553685670,355.64795,sub08_Luoluo-v_80,8,redleft-greenright,0,1,4,false
1,0,1,1,854.5,sub08_Luoluo,628,v_80,20,v,4,1553685670,358.1894,sub08_Luoluo-v_80,8,redleft-greenright,0,1,4,true
0,1,1,0,467.5,sub08_Luoluo,629,v_80,20,v,4,1553685670,360.73085,sub08_Luoluo-v_80,8,redleft-greenright,0,0,4,true
0,1,1,0,594.5,sub08_Luoluo,630,v_80,20,v,4,1553685670,363.1473,sub08_Luoluo-v_80,8,redleft-greenright,0,0,4,true
0,1,1,0,585.4,sub08_Luoluo,631,v_80,20,v,4,1553685670,365.5638,sub08_Luoluo-v_80,8,redleft-greenright,0,0,4,true
0,1,1,0,538.5,sub08_Luoluo,632,v_80,20,v,4,1553685670,367.85525,sub08_Luoluo-v_80,8,redleft-greenright,0,0,4,true
1,1,1,1,847.3,sub08_Luoluo,633,v_80,20,v,4,1553685670,370.3967,sub08_Luoluo-v_80,8,redleft-greenright,1,1,4,true
1,0,1,1,652.3,sub08_Luoluo,634,v_80,20,v,4,1553685670,372.93815,sub08_Luoluo-v_80,8,redleft-greenright,0,1,4,false
1,1,0,0,625.3,sub08_Luoluo,635,v_80,20,v,4,1553685670,374.97965,sub08_Luoluo-v_80,8,redleft-greenright,1,1,4,true
1,0,1,1,816.3,sub08_Luoluo,636,v_80,20,v,4,1553685670,377.3961,sub08_Luoluo-v_80,8,redleft-greenright,0,1,4,true
0,1,1,0,671.2,sub08_Luoluo,637,v_80,20,v,4,1553685670,379.81255,sub08_Luoluo-v_80,8,redleft-greenright,0,0,4,false
0,1,1,0,596.4,sub08_Luoluo,638,v_80,20,v,4,1553685670,382.354,sub08_Luoluo-v_80,8,redleft-greenright,0,0,4,true
1,1,1,1,553.3,sub08_Luoluo,639,v_80,20,v,4,1553685670,384.3955,sub08_Luoluo-v_80,8,redleft-greenright,1,1,4,true
0,1,1,0,558.2,sub08_Luoluo,640,v_80,20,v,4,1553685670,386.93695,sub08_Luoluo-v_80,8,redleft-greenright,0,0,4,true
0,1,1,0,723.9,sub08_Luoluo,641,v_20,20,v,1,1553686962,0.218,sub08_Luoluo-v_20,8,redleft-greenright,0,0,5,true
0,0,1,0,834.8,sub08_Luoluo,642,v_20,20,v,1,1553686962,2.63445,sub08_Luoluo-v_20,8,redleft-greenright,1,0,5,false
1,0,1,1,778,sub08_Luoluo,643,v_20,20,v,1,1553686962,5.0509,sub08_Luoluo-v_20,8,redleft-greenright,0,1,5,true
1,0,1,1,672.9,sub08_Luoluo,644,v_20,20,v,1,1553686962,7.4674,sub08_Luoluo-v_20,8,redleft-greenright,0,1,5,true
0,1,1,0,573.9,sub08_Luoluo,645,v_20,20,v,1,1553686962,10.00885,sub08_Luoluo-v_20,8,redleft-greenright,0,0,5,true
1,0,1,1,776.9,sub08_Luoluo,646,v_20,20,v,1,1553686962,12.1753,sub08_Luoluo-v_20,8,redleft-greenright,0,1,5,true
1,1,0,0,873.9,sub08_Luoluo,647,v_20,20,v,1,1553686962,14.4668,sub08_Luoluo-v_20,8,redleft-greenright,1,1,5,false
1,1,1,1,726.8,sub08_Luoluo,648,v_20,20,v,1,1553686962,17.00825,sub08_Luoluo-v_20,8,redleft-greenright,1,1,5,true
0,1,1,0,611.9,sub08_Luoluo,649,v_20,20,v,1,1553686962,19.5497,sub08_Luoluo-v_20,8,redleft-greenright,0,0,5,true
1,0,1,1,714.8,sub08_Luoluo,650,v_20,20,v,1,1553686962,21.96615,sub08_Luoluo-v_20,8,redleft-greenright,0,1,5,false
0,1,1,0,583.9,sub08_Luoluo,651,v_20,20,v,1,1553686962,24.5076,sub08_Luoluo-v_20,8,redleft-greenright,0,0,5,true
0,1,1,0,668.8,sub08_Luoluo,652,v_20,20,v,1,1553686962,27.04905,sub08_Luoluo-v_20,8,redleft-greenright,0,0,5,true
1,0,1,1,780,sub08_Luoluo,653,v_20,20,v,1,1553686962,29.4655,sub08_Luoluo-v_20,8,redleft-greenright,0,1,5,true
0,1,1,0,536.8,sub08_Luoluo,654,v_20,20,v,1,1553686962,32.00695,sub08_Luoluo-v_20,8,redleft-greenright,0,0,5,true
1,0,1,1,685.9,sub08_Luoluo,655,v_20,20,v,1,1553686962,34.5484,sub08_Luoluo-v_20,8,redleft-greenright,0,1,5,true
1,1,0,0,540.7,sub08_Luoluo,656,v_20,20,v,1,1553686962,36.96485,sub08_Luoluo-v_20,8,redleft-greenright,1,1,5,true
0,1,1,0,649.8,sub08_Luoluo,657,v_20,20,v,1,1553686962,39.5063,sub08_Luoluo-v_20,8,redleft-greenright,0,0,5,true
1,1,1,1,814.7,sub08_Luoluo,658,v_20,20,v,1,1553686962,42.04775,sub08_Luoluo-v_20,8,redleft-greenright,1,1,5,true
1,0,1,1,855.8,sub08_Luoluo,659,v_20,20,v,1,1553686962,44.3392,sub08_Luoluo-v_20,8,redleft-greenright,0,1,5,false
0,0,1,0,676.7,sub08_Luoluo,660,v_20,20,v,1,1553686962,46.88065,sub08_Luoluo-v_20,8,redleft-greenright,1,0,5,true
0,1,1,0,1033.6,sub08_Luoluo,661,v_20,20,v,1,1553686962,48.92215,sub08_Luoluo-v_20,8,redleft-greenright,0,0,5,false
1,0,1,1,774.8,sub08_Luoluo,662,v_20,20,v,1,1553686962,51.4636,sub08_Luoluo-v_20,8,redleft-greenright,0,1,5,true
0,1,1,0,955.6,sub08_Luoluo,663,v_20,20,v,1,1553686962,54.00505,sub08_Luoluo-v_20,8,redleft-greenright,0,0,5,true
1,0,1,1,858.8,sub08_Luoluo,664,v_20,20,v,1,1553686962,56.4215,sub08_Luoluo-v_20,8,redleft-greenright,0,1,5,true
0,1,1,0,591.6,sub08_Luoluo,665,v_20,20,v,1,1553686962,58.96295,sub08_Luoluo-v_20,8,redleft-greenright,0,0,5,true
0,1,1,0,462.7,sub08_Luoluo,666,v_20,20,v,1,1553686962,61.37945,sub08_Luoluo-v_20,8,redleft-greenright,0,0,5,true
0,0,1,0,787.5,sub08_Luoluo,667,v_20,20,v,1,1553686962,63.4209,sub08_Luoluo-v_20,8,redleft-greenright,1,0,5,false
1,0,1,1,808.4,sub08_Luoluo,668,v_20,20,v,1,1553686962,65.96235,sub08_Luoluo-v_20,8,redleft-greenright,0,1,5,true
1,0,1,1,831.5,sub08_Luoluo,669,v_20,20,v,1,1553686962,68.37885,sub08_Luoluo-v_20,8,redleft-greenright,0,1,5,true
0,1,1,0,876.6,sub08_Luoluo,670,v_20,20,v,1,1553686962,70.92025,sub08_Luoluo-v_20,8,redleft-greenright,0,0,5,false
0,1,1,0,683.6,sub08_Luoluo,671,v_20,20,v,1,1553686962,73.33675,sub08_Luoluo-v_20,8,redleft-greenright,0,0,5,true
1,0,1,1,950.4,sub08_Luoluo,672,v_20,20,v,1,1553686962,75.5032,sub08_Luoluo-v_20,8,redleft-greenright,0,1,5,true
1,0,1,1,875.4,sub08_Luoluo,673,v_20,20,v,1,1553686962,78.04465,sub08_Luoluo-v_20,8,redleft-greenright,0,1,5,false
1,0,1,1,1208.6,sub08_Luoluo,674,v_20,20,v,1,1553686962,80.5861,sub08_Luoluo-v_20,8,redleft-greenright,0,1,5,true
0,1,1,0,1511.5,sub08_Luoluo,675,v_20,20,v,1,1553686962,82.5026,sub08_Luoluo-v_20,8,redleft-greenright,0,0,5,true
0,0,1,0,676.3,sub08_Luoluo,676,v_20,20,v,1,1553686962,85.04405,sub08_Luoluo-v_20,8,redleft-greenright,1,0,5,true
0,1,1,0,593.5,sub08_Luoluo,677,v_20,20,v,1,1553686962,87.5855,sub08_Luoluo-v_20,8,redleft-greenright,0,0,5,true
0,1,1,0,1120.4,sub08_Luoluo,678,v_20,20,v,1,1553686962,90.00195,sub08_Luoluo-v_20,8,redleft-greenright,0,0,5,true
1,0,1,1,551.5,sub08_Luoluo,679,v_20,20,v,1,1553686962,92.41845,sub08_Luoluo-v_20,8,redleft-greenright,0,1,5,true
1,0,1,1,708.3,sub08_Luoluo,680,v_20,20,v,1,1553686962,94.9599,sub08_Luoluo-v_20,8,redleft-greenright,0,1,5,true
1,1,0,0,801.4,sub08_Luoluo,681,v_20,80,v,2,1553686962,97.50135,sub08_Luoluo-v_20,8,redleft-greenright,1,1,5,false
1,1,1,1,1158.2,sub08_Luoluo,682,v_20,80,v,2,1553686962,100.0428,sub08_Luoluo-v_20,8,redleft-greenright,1,1,5,true
0,0,1,0,643.3,sub08_Luoluo,683,v_20,80,v,2,1553686962,102.58425,sub08_Luoluo-v_20,8,redleft-greenright,1,0,5,false
0,0,0,1,914.5,sub08_Luoluo,684,v_20,80,v,2,1553686962,105.0007,sub08_Luoluo-v_20,8,redleft-greenright,1,0,5,true
0,0,0,1,991.4,sub08_Luoluo,685,v_20,80,v,2,1553686962,107.54215,sub08_Luoluo-v_20,8,redleft-greenright,1,0,5,true
1,1,1,1,584.3,sub08_Luoluo,686,v_20,80,v,2,1553686962,109.8336,sub08_Luoluo-v_20,8,redleft-greenright,1,1,5,true
1,0,1,1,733.3,sub08_Luoluo,687,v_20,80,v,2,1553686962,111.8751,sub08_Luoluo-v_20,8,redleft-greenright,0,1,5,true
1,1,1,1,762.4,sub08_Luoluo,688,v_20,80,v,2,1553686962,114.41655,sub08_Luoluo-v_20,8,redleft-greenright,1,1,5,false
1,1,1,1,847.2,sub08_Luoluo,689,v_20,80,v,2,1553686962,116.958,sub08_Luoluo-v_20,8,redleft-greenright,1,1,5,true
1,1,1,1,588.3,sub08_Luoluo,690,v_20,80,v,2,1553686962,119.49945,sub08_Luoluo-v_20,8,redleft-greenright,1,1,5,true
0,0,1,0,587.3,sub08_Luoluo,691,v_20,80,v,2,1553686962,121.9159,sub08_Luoluo-v_20,8,redleft-greenright,1,0,5,false
0,1,1,0,629.2,sub08_Luoluo,693,v_20,80,v,2,1553686962,126.9988,sub08_Luoluo-v_20,8,redleft-greenright,0,0,5,true
0,1,1,0,724.1,sub08_Luoluo,694,v_20,80,v,2,1553686962,129.41525,sub08_Luoluo-v_20,8,redleft-greenright,0,0,5,true
0,0,1,0,613.4,sub08_Luoluo,695,v_20,80,v,2,1553686962,131.70675,sub08_Luoluo-v_20,8,redleft-greenright,1,0,5,true
1,0,1,1,1042,sub08_Luoluo,696,v_20,80,v,2,1553686962,134.2482,sub08_Luoluo-v_20,8,redleft-greenright,0,1,5,true
0,0,1,0,689.2,sub08_Luoluo,697,v_20,80,v,2,1553686962,136.66465,sub08_Luoluo-v_20,8,redleft-greenright,1,0,5,true
1,1,1,1,612.1,sub08_Luoluo,698,v_20,80,v,2,1553686962,138.8311,sub08_Luoluo-v_20,8,redleft-greenright,1,1,5,false
1,1,0,0,593.2,sub08_Luoluo,699,v_20,80,v,2,1553686962,141.37255,sub08_Luoluo-v_20,8,redleft-greenright,1,1,5,true
1,1,1,1,688,sub08_Luoluo,700,v_20,80,v,2,1553686962,143.78905,sub08_Luoluo-v_20,8,redleft-greenright,1,1,5,true
0,0,1,0,655,sub08_Luoluo,701,v_20,80,v,2,1553686962,146.2055,sub08_Luoluo-v_20,8,redleft-greenright,1,0,5,false
1,1,1,1,614,sub08_Luoluo,702,v_20,80,v,2,1553686962,148.62195,sub08_Luoluo-v_20,8,redleft-greenright,1,1,5,true
1,1,1,1,835,sub08_Luoluo,703,v_20,80,v,2,1553686962,151.1634,sub08_Luoluo-v_20,8,redleft-greenright,1,1,5,true
0,1,1,0,1248,sub08_Luoluo,704,v_20,80,v,2,1553686962,153.70485,sub08_Luoluo-v_20,8,redleft-greenright,0,0,5,true
0,0,1,0,693,sub08_Luoluo,705,v_20,80,v,2,1553686962,156.2463,sub08_Luoluo-v_20,8,redleft-greenright,1,0,5,true
0,0,1,0,735,sub08_Luoluo,707,v_20,80,v,2,1553686962,161.3292,sub08_Luoluo-v_20,8,redleft-greenright,1,0,5,true
0,0,0,1,786.9,sub08_Luoluo,709,v_20,80,v,2,1553686962,166.2871,sub08_Luoluo-v_20,8,redleft-greenright,1,0,5,true
0,0,1,0,1088,sub08_Luoluo,710,v_20,80,v,2,1553686962,168.82855,sub08_Luoluo-v_20,8,redleft-greenright,1,0,5,true
0,1,1,0,662.9,sub08_Luoluo,711,v_20,80,v,2,1553686962,170.74505,sub08_Luoluo-v_20,8,redleft-greenright,0,0,5,false
0,0,1,0,589.8,sub08_Luoluo,712,v_20,80,v,2,1553686962,173.1615,sub08_Luoluo-v_20,8,redleft-greenright,1,0,5,false
1,0,1,1,674.9,sub08_Luoluo,713,v_20,80,v,2,1553686962,175.70295,sub08_Luoluo-v_20,8,redleft-greenright,0,1,5,true
1,1,1,1,777.8,sub08_Luoluo,714,v_20,80,v,2,1553686962,178.1194,sub08_Luoluo-v_20,8,redleft-greenright,1,1,5,true
0,0,1,0,566.8,sub08_Luoluo,715,v_20,80,v,2,1553686962,180.66085,sub08_Luoluo-v_20,8,redleft-greenright,1,0,5,true
1,1,1,1,653.9,sub08_Luoluo,716,v_20,80,v,2,1553686962,183.07735,sub08_Luoluo-v_20,8,redleft-greenright,1,1,5,true
1,0,1,1,668.8,sub08_Luoluo,717,v_20,80,v,2,1553686962,185.4938,sub08_Luoluo-v_20,8,redleft-greenright,0,1,5,true
1,1,1,1,665.7,sub08_Luoluo,718,v_20,80,v,2,1553686962,188.03525,sub08_Luoluo-v_20,8,redleft-greenright,1,1,5,false
1,1,1,1,606.8,sub08_Luoluo,719,v_20,80,v,2,1553686962,190.5767,sub08_Luoluo-v_20,8,redleft-greenright,1,1,5,true
1,1,1,1,657.7,sub08_Luoluo,720,v_20,80,v,2,1553686962,192.74315,sub08_Luoluo-v_20,8,redleft-greenright,1,1,5,true
0,0,1,0,502.7,sub08_Luoluo,721,v_20,20,v,3,1553686962,194.78465,sub08_Luoluo-v_20,8,redleft-greenright,1,0,5,false
0,1,1,0,631.6,sub08_Luoluo,722,v_20,20,v,3,1553686962,197.07615,sub08_Luoluo-v_20,8,redleft-greenright,0,0,5,true
0,1,1,0,604.7,sub08_Luoluo,723,v_20,20,v,3,1553686962,199.61755,sub08_Luoluo-v_20,8,redleft-greenright,0,0,5,true
1,0,1,1,555.6,sub08_Luoluo,724,v_20,20,v,3,1553686962,202.03405,sub08_Luoluo-v_20,8,redleft-greenright,0,1,5,true
0,1,1,0,504.6,sub08_Luoluo,725,v_20,20,v,3,1553686962,204.5755,sub08_Luoluo-v_20,8,redleft-greenright,0,0,5,true
1,0,1,1,885.6,sub08_Luoluo,726,v_20,20,v,3,1553686962,207.11695,sub08_Luoluo-v_20,8,redleft-greenright,0,1,5,true
1,0,1,1,1476.5,sub08_Luoluo,727,v_20,20,v,3,1553686962,209.5334,sub08_Luoluo-v_20,8,redleft-greenright,0,1,5,false
1,0,1,1,657.6,sub08_Luoluo,728,v_20,20,v,3,1553686962,212.07485,sub08_Luoluo-v_20,8,redleft-greenright,0,1,5,true
1,1,1,1,632.5,sub08_Luoluo,729,v_20,20,v,3,1553686962,214.4913,sub08_Luoluo-v_20,8,redleft-greenright,1,1,5,false
1,0,1,1,773.6,sub08_Luoluo,730,v_20,20,v,3,1553686962,217.03275,sub08_Luoluo-v_20,8,redleft-greenright,0,1,5,true
1,1,1,1,674.6,sub08_Luoluo,731,v_20,20,v,3,1553686962,219.5742,sub08_Luoluo-v_20,8,redleft-greenright,1,1,5,true
0,1,1,0,663.6,sub08_Luoluo,732,v_20,20,v,3,1553686962,222.11565,sub08_Luoluo-v_20,8,redleft-greenright,0,0,5,true
0,1,1,0,654.5,sub08_Luoluo,733,v_20,20,v,3,1553686962,224.5321,sub08_Luoluo-v_20,8,redleft-greenright,0,0,5,true
0,0,1,0,627.5,sub08_Luoluo,734,v_20,20,v,3,1553686962,227.07355,sub08_Luoluo-v_20,8,redleft-greenright,1,0,5,true
0,1,1,0,874.7,sub08_Luoluo,735,v_20,20,v,3,1553686962,229.49,sub08_Luoluo-v_20,8,redleft-greenright,0,0,5,true
0,1,1,0,639.5,sub08_Luoluo,736,v_20,20,v,3,1553686962,232.03145,sub08_Luoluo-v_20,8,redleft-greenright,0,0,5,false
0,1,1,0,566.5,sub08_Luoluo,737,v_20,20,v,3,1553686962,234.4479,sub08_Luoluo-v_20,8,redleft-greenright,0,0,5,true
0,1,1,0,667.5,sub08_Luoluo,738,v_20,20,v,3,1553686962,236.98935,sub08_Luoluo-v_20,8,redleft-greenright,0,0,5,true
1,0,1,1,718.4,sub08_Luoluo,739,v_20,20,v,3,1553686962,239.15585,sub08_Luoluo-v_20,8,redleft-greenright,0,1,5,false
1,0,0,0,539.7,sub08_Luoluo,740,v_20,20,v,3,1553686962,241.6973,sub08_Luoluo-v_20,8,redleft-greenright,0,1,5,true
1,0,1,1,816.4,sub08_Luoluo,741,v_20,20,v,3,1553686962,244.23875,sub08_Luoluo-v_20,8,redleft-greenright,0,1,5,true
0,1,1,0,621.3,sub08_Luoluo,742,v_20,20,v,3,1553686962,246.7802,sub08_Luoluo-v_20,8,redleft-greenright,0,0,5,true
1,0,1,1,826.4,sub08_Luoluo,743,v_20,20,v,3,1553686962,249.32165,sub08_Luoluo-v_20,8,redleft-greenright,0,1,5,true
1,0,1,1,767.4,sub08_Luoluo,744,v_20,20,v,3,1553686962,251.8631,sub08_Luoluo-v_20,8,redleft-greenright,0,1,5,true
1,1,1,1,780.3,sub08_Luoluo,745,v_20,20,v,3,1553686962,253.9046,sub08_Luoluo-v_20,8,redleft-greenright,1,1,5,false
1,0,1,1,801.3,sub08_Luoluo,746,v_20,20,v,3,1553686962,256.44605,sub08_Luoluo-v_20,8,redleft-greenright,0,1,5,true
0,0,1,0,742.3,sub08_Luoluo,747,v_20,20,v,3,1553686962,258.9875,sub08_Luoluo-v_20,8,redleft-greenright,1,0,5,true
0,1,1,0,603.4,sub08_Luoluo,748,v_20,20,v,3,1553686962,261.52895,sub08_Luoluo-v_20,8,redleft-greenright,0,0,5,true
1,1,0,0,864.3,sub08_Luoluo,749,v_20,20,v,3,1553686962,263.57045,sub08_Luoluo-v_20,8,redleft-greenright,1,1,5,true
1,0,1,1,877.3,sub08_Luoluo,750,v_20,20,v,3,1553686962,266.11185,sub08_Luoluo-v_20,8,redleft-greenright,0,1,5,false
1,0,1,1,1156.2,sub08_Luoluo,751,v_20,20,v,3,1553686962,268.52835,sub08_Luoluo-v_20,8,redleft-greenright,0,1,5,true
1,0,1,1,611.2,sub08_Luoluo,752,v_20,20,v,3,1553686962,270.9448,sub08_Luoluo-v_20,8,redleft-greenright,0,1,5,true
1,0,1,1,714.2,sub08_Luoluo,753,v_20,20,v,3,1553686962,273.36125,sub08_Luoluo-v_20,8,redleft-greenright,0,1,5,true
0,1,1,0,511.3,sub08_Luoluo,754,v_20,20,v,3,1553686962,275.9027,sub08_Luoluo-v_20,8,redleft-greenright,0,0,5,false
0,1,1,0,805.3,sub08_Luoluo,756,v_20,20,v,3,1553686962,280.7356,sub08_Luoluo-v_20,8,redleft-greenright,0,0,5,true
1,0,1,1,780.1,sub08_Luoluo,757,v_20,20,v,3,1553686962,283.1521,sub08_Luoluo-v_20,8,redleft-greenright,0,1,5,true
0,0,1,0,711.1,sub08_Luoluo,758,v_20,20,v,3,1553686962,285.31855,sub08_Luoluo-v_20,8,redleft-greenright,1,0,5,true
0,1,1,0,976,sub08_Luoluo,759,v_20,20,v,3,1553686962,287.61005,sub08_Luoluo-v_20,8,redleft-greenright,0,0,5,true
0,1,1,0,517.1,sub08_Luoluo,760,v_20,20,v,3,1553686962,290.1515,sub08_Luoluo-v_20,8,redleft-greenright,0,0,5,true
1,0,1,1,692.1,sub08_Luoluo,761,v_20,80,v,4,1553686962,292.068,sub08_Luoluo-v_20,8,redleft-greenright,0,1,5,false
0,0,1,0,873.1,sub08_Luoluo,762,v_20,80,v,4,1553686962,294.60945,sub08_Luoluo-v_20,8,redleft-greenright,1,0,5,true
1,1,1,1,1062,sub08_Luoluo,763,v_20,80,v,4,1553686962,297.1509,sub08_Luoluo-v_20,8,redleft-greenright,1,1,5,true
1,0,1,1,770.9,sub08_Luoluo,764,v_20,80,v,4,1553686962,299.69235,sub08_Luoluo-v_20,8,redleft-greenright,0,1,5,true
0,1,1,0,552.1,sub08_Luoluo,765,v_20,80,v,4,1553686962,302.2338,sub08_Luoluo-v_20,8,redleft-greenright,0,0,5,false
0,1,1,0,679.3,sub08_Luoluo,766,v_20,80,v,4,1553686962,304.65025,sub08_Luoluo-v_20,8,redleft-greenright,0,0,5,true
1,1,1,1,750.1,sub08_Luoluo,767,v_20,80,v,4,1553686962,307.0667,sub08_Luoluo-v_20,8,redleft-greenright,1,1,5,true
0,0,1,0,587,sub08_Luoluo,768,v_20,80,v,4,1553686962,309.60815,sub08_Luoluo-v_20,8,redleft-greenright,1,0,5,false
1,1,1,1,713.9,sub08_Luoluo,769,v_20,80,v,4,1553686962,312.0246,sub08_Luoluo-v_20,8,redleft-greenright,1,1,5,true
0,1,1,0,783,sub08_Luoluo,770,v_20,80,v,4,1553686962,314.56605,sub08_Luoluo-v_20,8,redleft-greenright,0,0,5,true
0,0,0,1,1345.8,sub08_Luoluo,771,v_20,80,v,4,1553686962,316.73255,sub08_Luoluo-v_20,8,redleft-greenright,1,0,5,true
1,1,1,1,590.7,sub08_Luoluo,772,v_20,80,v,4,1553686962,318.77405,sub08_Luoluo-v_20,8,redleft-greenright,1,1,5,true
0,0,1,0,655.9,sub08_Luoluo,773,v_20,80,v,4,1553686962,321.0655,sub08_Luoluo-v_20,8,redleft-greenright,1,0,5,false
0,1,1,0,655,sub08_Luoluo,774,v_20,80,v,4,1553686962,323.48195,sub08_Luoluo-v_20,8,redleft-greenright,0,0,5,false
1,1,1,1,1131.7,sub08_Luoluo,775,v_20,80,v,4,1553686962,326.0234,sub08_Luoluo-v_20,8,redleft-greenright,1,1,5,true
1,1,1,1,1408.7,sub08_Luoluo,776,v_20,80,v,4,1553686962,328.56485,sub08_Luoluo-v_20,8,redleft-greenright,1,1,5,true
0,0,1,0,483.7,sub08_Luoluo,777,v_20,80,v,4,1553686962,330.73135,sub08_Luoluo-v_20,8,redleft-greenright,1,0,5,true
0,0,1,0,673.7,sub08_Luoluo,779,v_20,80,v,4,1553686962,335.56425,sub08_Luoluo-v_20,8,redleft-greenright,1,0,5,true
0,0,1,0,710.6,sub08_Luoluo,780,v_20,80,v,4,1553686962,337.60575,sub08_Luoluo-v_20,8,redleft-greenright,1,0,5,true
1,0,1,1,747.6,sub08_Luoluo,781,v_20,80,v,4,1553686962,340.1472,sub08_Luoluo-v_20,8,redleft-greenright,0,1,5,true
0,0,1,0,554.7,sub08_Luoluo,782,v_20,80,v,4,1553686962,342.56365,sub08_Luoluo-v_20,8,redleft-greenright,1,0,5,true
0,0,1,0,569.6,sub08_Luoluo,783,v_20,80,v,4,1553686962,344.9801,sub08_Luoluo-v_20,8,redleft-greenright,1,0,5,true
0,0,1,0,600.5,sub08_Luoluo,784,v_20,80,v,4,1553686962,347.39655,sub08_Luoluo-v_20,8,redleft-greenright,1,0,5,true
0,0,1,0,549.5,sub08_Luoluo,785,v_20,80,v,4,1553686962,349.938,sub08_Luoluo-v_20,8,redleft-greenright,1,0,5,true
1,1,1,1,580.4,sub08_Luoluo,786,v_20,80,v,4,1553686962,351.85455,sub08_Luoluo-v_20,8,redleft-greenright,1,1,5,false
1,1,1,1,721.4,sub08_Luoluo,787,v_20,80,v,4,1553686962,354.396,sub08_Luoluo-v_20,8,redleft-greenright,1,1,5,true
0,0,1,0,454.4,sub08_Luoluo,788,v_20,80,v,4,1553686962,356.9374,sub08_Luoluo-v_20,8,redleft-greenright,1,0,5,false
0,0,1,0,957.4,sub08_Luoluo,789,v_20,80,v,4,1553686962,359.3539,sub08_Luoluo-v_20,8,redleft-greenright,1,0,5,true
0,0,1,0,570.3,sub08_Luoluo,790,v_20,80,v,4,1553686962,361.89535,sub08_Luoluo-v_20,8,redleft-greenright,1,0,5,true
1,0,1,1,959.4,sub08_Luoluo,791,v_20,80,v,4,1553686962,364.4368,sub08_Luoluo-v_20,8,redleft-greenright,0,1,5,true
1,1,1,1,574.5,sub08_Luoluo,792,v_20,80,v,4,1553686962,366.85325,sub08_Luoluo-v_20,8,redleft-greenright,1,1,5,true
1,1,1,1,587.4,sub08_Luoluo,793,v_20,80,v,4,1553686962,369.3947,sub08_Luoluo-v_20,8,redleft-greenright,1,1,5,true
1,1,1,1,568.3,sub08_Luoluo,794,v_20,80,v,4,1553686962,371.93615,sub08_Luoluo-v_20,8,redleft-greenright,1,1,5,true
0,0,1,0,709.5,sub08_Luoluo,795,v_20,80,v,4,1553686962,374.4776,sub08_Luoluo-v_20,8,redleft-greenright,1,0,5,true
1,1,1,1,796.5,sub08_Luoluo,796,v_20,80,v,4,1553686962,376.89405,sub08_Luoluo-v_20,8,redleft-greenright,1,1,5,true
1,1,1,1,697.5,sub08_Luoluo,797,v_20,80,v,4,1553686962,379.4355,sub08_Luoluo-v_20,8,redleft-greenright,1,1,5,true
1,1,1,1,550.5,sub08_Luoluo,798,v_20,80,v,4,1553686962,381.97695,sub08_Luoluo-v_20,8,redleft-greenright,1,1,5,true
1,1,1,1,677.4,sub08_Luoluo,799,v_20,80,v,4,1553686962,384.3934,sub08_Luoluo-v_20,8,redleft-greenright,1,1,5,true
0,0,1,0,506.3,sub08_Luoluo,800,v_20,80,v,4,1553686962,386.93485,sub08_Luoluo-v_20,8,redleft-greenright,1,0,5,false
0,0,1,0,744.5,sub08_Luoluo,801,v_80,80,v,1,1553687838,0.2198,sub08_Luoluo-v_80.,8,redleft-greenright,1,0,6,true
1,1,1,1,767.4,sub08_Luoluo,802,v_80,80,v,1,1553687838,2.63625,sub08_Luoluo-v_80.,8,redleft-greenright,1,1,6,false
1,1,1,1,748.4,sub08_Luoluo,803,v_80,80,v,1,1553687838,5.1777,sub08_Luoluo-v_80.,8,redleft-greenright,1,1,6,true
1,1,1,1,596.3,sub08_Luoluo,805,v_80,80,v,1,1553687838,9.88565,sub08_Luoluo-v_80.,8,redleft-greenright,1,1,6,true
0,0,1,0,521.5,sub08_Luoluo,806,v_80,80,v,1,1553687838,12.4271,sub08_Luoluo-v_80.,8,redleft-greenright,1,0,6,true
1,1,1,1,624.4,sub08_Luoluo,807,v_80,80,v,1,1553687838,14.84355,sub08_Luoluo-v_80.,8,redleft-greenright,1,1,6,true
0,0,1,0,687.3,sub08_Luoluo,808,v_80,80,v,1,1553687838,17.26,sub08_Luoluo-v_80.,8,redleft-greenright,1,0,6,true
0,0,1,0,556.3,sub08_Luoluo,809,v_80,80,v,1,1553687838,19.80145,sub08_Luoluo-v_80.,8,redleft-greenright,1,0,6,true
0,1,1,0,809.5,sub08_Luoluo,810,v_80,80,v,1,1553687838,22.3429,sub08_Luoluo-v_80.,8,redleft-greenright,0,0,6,true
0,0,1,0,680.2,sub08_Luoluo,811,v_80,80,v,1,1553687838,24.75935,sub08_Luoluo-v_80.,8,redleft-greenright,1,0,6,true
0,0,1,0,527.4,sub08_Luoluo,812,v_80,80,v,1,1553687838,27.17585,sub08_Luoluo-v_80.,8,redleft-greenright,1,0,6,true
1,0,1,1,820.4,sub08_Luoluo,813,v_80,80,v,1,1553687838,29.7173,sub08_Luoluo-v_80.,8,redleft-greenright,0,1,6,true
0,0,1,0,625.4,sub08_Luoluo,814,v_80,80,v,1,1553687838,32.25875,sub08_Luoluo-v_80.,8,redleft-greenright,1,0,6,false
0,0,1,0,822.2,sub08_Luoluo,815,v_80,80,v,1,1553687838,34.8002,sub08_Luoluo-v_80.,8,redleft-greenright,1,0,6,true
0,0,1,0,589.2,sub08_Luoluo,816,v_80,80,v,1,1553687838,37.21665,sub08_Luoluo-v_80.,8,redleft-greenright,1,0,6,true
0,0,1,0,454.4,sub08_Luoluo,817,v_80,80,v,1,1553687838,39.5081,sub08_Luoluo-v_80.,8,redleft-greenright,1,0,6,true
1,1,1,1,1074.1,sub08_Luoluo,819,v_80,80,v,1,1553687838,43.96605,sub08_Luoluo-v_80.,8,redleft-greenright,1,1,6,false
0,0,1,0,759.3,sub08_Luoluo,820,v_80,80,v,1,1553687838,46.5075,sub08_Luoluo-v_80.,8,redleft-greenright,1,0,6,true
0,0,1,0,673.1,sub08_Luoluo,822,v_80,80,v,1,1553687838,51.5904,sub08_Luoluo-v_80.,8,redleft-greenright,1,0,6,true
1,1,1,1,654.2,sub08_Luoluo,823,v_80,80,v,1,1553687838,54.13185,sub08_Luoluo-v_80.,8,redleft-greenright,1,1,6,true
0,0,1,0,709.2,sub08_Luoluo,824,v_80,80,v,1,1553687838,56.04835,sub08_Luoluo-v_80.,8,redleft-greenright,1,0,6,true
0,0,1,0,522,sub08_Luoluo,825,v_80,80,v,1,1553687838,58.5898,sub08_Luoluo-v_80.,8,redleft-greenright,1,0,6,true
1,1,1,1,681,sub08_Luoluo,826,v_80,80,v,1,1553687838,61.00625,sub08_Luoluo-v_80.,8,redleft-greenright,1,1,6,true
0,1,1,0,742.1,sub08_Luoluo,827,v_80,80,v,1,1553687838,63.5477,sub08_Luoluo-v_80.,8,redleft-greenright,0,0,6,true
1,0,1,1,541.1,sub08_Luoluo,828,v_80,80,v,1,1553687838,65.96415,sub08_Luoluo-v_80.,8,redleft-greenright,0,1,6,true
1,1,1,1,906,sub08_Luoluo,829,v_80,80,v,1,1553687838,68.5056,sub08_Luoluo-v_80.,8,redleft-greenright,1,1,6,false
